t_s;ax;ay;az;irq_runs;uptime_us
-269.998062;1.7639999;0.147;0.098;1;1139089618
-269.986091;1.813;0.196;0.196;1;1139101589
-269.975801;1.7639999;0.098;0.244999984;1;1139111879
-269.962222;1.7639999;0.098;0.244999984;1;1139125458
-269.951956;1.7639999;0.147;0.196;1;1139135724
-269.940842;1.7639999;0.098;0.147;1;1139146838
-269.929870;1.813;0.147;0.196;1;1139157810
-269.916335;1.7639999;0.147;0.147;1;1139171345
-269.905391;1.7639999;0.147;0.196;1;1139182289
-269.891792;1.7639999;0.098;0.196;1;1139195888
-269.880362;1.813;0.147;0.196;1;1139207318
-269.868270;1.7639999;0.098;0.244999984;1;1139219410
-269.843629;1.7639999;0.098;0.147;1;1139244051
-269.831632;1.7639999;0.098;0.147;1;1139256048
-269.818677;1.7639999;0.147;0.196;1;1139269003
-269.798671;1.862;0.098;0.147;1;1139289009
-269.787159;1.7639999;0.147;0.196;1;1139300521
-269.774711;1.7639999;0.196;0.196;1;1139312969
-269.763220;1.7639999;0.147;0.196;1;1139324460
-269.750708;1.7639999;0.147;0.196;1;1139336972
-269.739203;1.7639999;0.098;0.196;1;1139348477
-269.715768;1.7639999;0.098;0.196;1;1139371912
-269.702076;1.813;0.098;0.196;1;1139385604
-269.679390;1.7639999;0.147;0.147;1;1139408290
-269.664133;1.7149999;0.147;0.147;1;1139423547
-269.653554;1.7149999;0.147;0.196;1;1139434126
-269.604307;1.813;0.098;0.196;1;1139483373
-269.579726;1.813;0.098;0.147;1;1139507954
-269.568662;1.7639999;0.147;0.196;1;1139519018
-269.553110;1.7639999;0.147;0.147;1;1139534570
-269.543001;1.7639999;0.147;0.147;1;1139544679
-269.531136;1.7639999;0.098;0.196;1;1139556544
-269.507158;1.7639999;0.147;0.147;1;1139580522
-269.481169;1.7639999;0.147;0.147;1;1139606511
-269.465421;1.813;0.098;0.196;1;1139622259
-269.452311;1.7639999;0.098;0.196;1;1139635369
-269.420610;1.7639999;0.147;0.147;1;1139667070
-269.401768;1.7639999;0.098;0.244999984;1;1139685912
-269.389639;1.7639999;0.147;0.147;1;1139698041
-269.376679;1.813;0.147;0.147;1;1139711001
-269.362258;1.7639999;0.147;0.147;1;1139725422
-269.348169;1.813;0.098;0.147;1;1139739511
-269.335997;1.7149999;0.147;0.196;1;1139751683
-269.323791;1.813;0.147;0.196;1;1139763889
-269.301798;1.813;0.098;0.196;1;1139785882
-269.290620;1.7639999;0.147;0.196;1;1139797060
-269.271793;1.7639999;0.147;0.147;1;1139815887
-269.256086;1.7639999;0.147;0.196;1;1139831594
-269.242960;1.7639999;0.147;0.147;1;1139844720
-269.220073;1.7639999;0.147;0.147;1;1139867607
-269.201206;1.7639999;0.098;0.196;1;1139886474
-269.185255;1.813;0.098;0.196;1;1139902425
-269.161714;1.7639999;0.147;0.147;1;1139925966
-269.113118;1.7639999;0.098;0.196;1;1139974562
-269.097886;1.7149999;0.147;0.147;1;1139989794
-269.084635;1.7149999;0.147;0.147;1;1140003045
-269.073706;1.813;0.147;0.147;1;1140013974
-269.057932;1.7639999;0.147;0.098;1;1140029748
-269.046577;1.7639999;0.098;0.196;1;1140041103
-269.035134;1.7639999;0.147;0.147;1;1140052546
-269.021638;1.7639999;0.147;0.147;1;1140066042
-269.005097;1.7639999;0.147;0.147;1;1140082583
-268.990697;1.7149999;0.147;0.196;1;1140096983
-268.978108;1.7639999;0.098;0.196;1;1140109572
-268.967145;1.813;0.147;0.147;1;1140120535
-268.952847;1.813;0.147;0.147;1;1140134833
-268.941869;1.813;0.147;0.147;1;1140145811
-268.930928;1.813;0.098;0.147;1;1140156752
-268.911844;1.7639999;0.098;0.196;1;1140175836
-268.900191;1.7639999;0.147;0.098;1;1140187489
-268.889462;1.813;0.147;0.147;1;1140198218
-268.877493;1.7149999;0.196;0.147;1;1140210187
-268.866640;1.7639999;0.098;0.147;1;1140221040
-268.852344;1.813;0.147;0.196;1;1140235336
-268.811490;1.7149999;0.147;0.196;1;1140276190
-268.798904;1.7639999;0.147;0.196;1;1140288776
-268.787458;1.7639999;0.147;0.244999984;1;1140300222
-268.775032;1.813;0.147;0.147;1;1140312648
-268.764695;1.7639999;0.098;0.147;1;1140322985
-268.750595;1.7639999;0.147;0.196;1;1140337085
-268.711619;1.813;0.098;0.147;1;1140376061
-268.645049;1.813;0.098;0.147;1;1140442631
-268.617327;1.813;0.098;0.147;1;1140470353
-268.592731;1.7639999;0.098;0.196;1;1140494949
-268.578162;1.813;0.098;0.147;1;1140509518
-268.567675;1.7149999;0.147;0.147;1;1140520005
-268.553099;1.7639999;0.098;0.196;1;1140534581
-268.512859;1.7639999;0.147;0.196;1;1140574821
-268.499793;1.813;0.147;0.196;1;1140587887
-268.487340;1.813;0.147;0.098;1;1140600340
-268.474901;1.7639999;0.098;0.196;1;1140612779
-268.458828;1.7149999;0.098;0.244999984;1;1140628852
-268.447771;1.7639999;0.098;0.147;1;1140639909
-268.432200;1.7639999;0.147;0.196;1;1140655480
-268.412898;1.7639999;0.147;0.196;1;1140674782
-268.379758;1.7639999;0.147;0.196;1;1140707922
-268.368828;1.7639999;0.147;0.147;1;1140718852
-268.355782;1.813;0.147;0.147;1;1140731898
-268.344837;1.7639999;0.147;0.196;1;1140742843
-268.333406;1.813;0.098;0.196;1;1140754274
-268.311312;1.7639999;0.196;0.196;1;1140776368
-268.291335;1.7639999;0.098;0.147;1;1140796345
-268.274905;1.7639999;0.098;0.147;1;1140812775
-268.248850;1.813;0.098;0.196;1;1140838830
-268.199655;1.7639999;0.196;0.196;1;1140888025
-268.173722;1.7639999;0.147;0.196;1;1140913958
-268.158184;1.813;0.098;0.196;1;1140929496
-268.147066;1.7149999;0.098;0.147;1;1140940614
-268.135218;1.7149999;0.147;0.147;1;1140952462
-268.108147;1.813;0.098;0.244999984;1;1140979533
-268.097107;1.813;0.098;0.244999984;1;1140990573
-268.084389;1.813;0.147;0.244999984;1;1141003291
-268.071870;1.7639999;0.098;0.196;1;1141015810
-268.045925;1.7639999;0.147;0.098;1;1141041755
-268.034882;1.7149999;0.098;0.147;1;1141052798
-268.012909;1.7639999;0.147;0.147;1;1141074771
-267.992822;1.7639999;0.098;0.147;1;1141094858
-267.981342;1.7639999;0.147;0.196;1;1141106338
-267.968463;1.7149999;0.147;0.244999984;1;1141119217
-267.955521;1.7149999;0.147;0.147;1;1141132159
-267.921779;1.7639999;0.098;0.196;1;1141165901
-267.902919;1.7639999;0.098;0.196;1;1141184761
-267.891864;1.7639999;0.147;0.147;1;1141195816
-267.880970;1.7639999;0.147;0.196;1;1141206710
-267.867262;1.7639999;0.098;0.196;1;1141220418
-267.856683;1.7639999;0.098;0.147;1;1141230997
-267.840943;1.7639999;0.147;0.147;1;1141246737
-267.826286;1.7639999;0.147;0.196;1;1141261394
-267.802911;1.813;0.147;0.196;1;1141284769
-267.760814;1.7639999;0.147;0.196;1;1141326866
-267.744505;1.7639999;0.147;0.147;1;1141343175
-267.714584;1.7149999;0.147;0.147;1;1141373096
-267.703748;1.7149999;0.147;0.147;1;1141383932
-267.685213;1.7639999;0.147;0.196;1;1141402467
-267.673251;1.7639999;0.147;0.196;1;1141414429
-267.661206;1.813;0.098;0.244999984;1;1141426474
-267.647998;1.7639999;0.147;0.196;1;1141439682
-267.634249;1.7149999;0.147;0.196;1;1141453431
-267.621798;1.7639999;0.147;0.196;1;1141465882
-267.610153;1.7639999;0.098;0.196;1;1141477527
-267.597391;1.7639999;0.147;0.147;1;1141490289
-267.584117;1.7149999;0.147;0.098;1;1141503563
-267.573585;1.813;0.098;0.147;1;1141514095
-267.550223;1.813;0.098;0.196;1;1141537457
-267.534960;1.7639999;0.098;0.196;1;1141552720
-267.511792;1.813;0.098;0.196;1;1141575888
-267.482099;1.7149999;0.147;0.147;1;1141605581
-267.471489;1.7639999;0.147;0.196;1;1141616191
-267.455299;1.7149999;0.147;0.147;1;1141632381
-267.428874;1.7639999;0.098;0.147;1;1141658806
-267.411647;1.7639999;0.098;0.147;1;1141676033
-267.392784;1.813;0.098;0.147;1;1141694896
-267.375231;1.7639999;0.147;0.196;1;1141712449
-267.362750;1.7639999;0.147;0.244999984;1;1141724930
-267.351000;1.7149999;0.196;0.196;1;1141736680
-267.339632;1.7639999;0.196;0.196;1;1141748048
-267.319925;1.7149999;0.196;0.147;1;1141767755
-267.279025;1.7149999;0.147;0.147;1;1141808655
-267.249723;1.7639999;0.147;0.196;1;1141837957
-267.236456;1.7639999;0.098;0.147;1;1141851224
-267.211675;1.813;0.147;0.196;1;1141876005
-267.199258;1.7639999;0.147;0.196;1;1141888422
-267.186023;1.7639999;0.147;0.196;1;1141901657
-267.174608;1.862;0.147;0.147;1;1141913072
-267.146961;1.813;0.098;0.196;1;1141940719
-267.134642;1.7639999;0.147;0.244999984;1;1141953038
-267.107352;1.7639999;0.098;0.098;1;1141980328
-267.096694;1.7639999;0.147;0.196;1;1141990986
-267.085165;1.813;0.098;0.196;1;1142002515
-267.074696;1.7639999;0.147;0.196;0;1142012984
-267.059453;1.7639999;0.098;0.147;2;1142028227
-267.048914;1.7639999;0.147;0.196;1;1142038766
-267.036122;1.7149999;0.147;0.147;1;1142051558
-267.005299;1.813;0.147;0.147;1;1142082381
-266.982393;1.7639999;0.147;0.196;1;1142105287
-266.971829;1.7639999;0.098;0.196;1;1142115851
-266.955633;1.7639999;0.098;0.147;1;1142132047
-266.943739;1.813;0.147;0.147;1;1142143941
-266.922871;1.7639999;0.098;0.196;1;1142164809
-266.911719;1.813;0.147;0.196;1;1142175961
-266.891810;1.7639999;0.147;0.196;1;1142195870
-266.879154;1.813;0.147;0.147;1;1142208526
-266.849730;1.862;0.147;0.244999984;1;1142237950
-266.832092;1.7639999;0.147;0.196;1;1142255588
-266.812682;1.7639999;0.147;0.147;1;1142274998
-266.801472;1.7149999;0.098;0.147;1;1142286208
-266.790714;1.7639999;0.147;0.196;1;1142296966
-266.775081;1.862;0.147;0.196;1;1142312599
-266.764813;1.813;0.147;0.196;1;1142322867
-266.751286;1.7639999;0.147;0.196;1;1142336394
-266.740955;1.666;0.196;0.196;1;1142346725
-266.729866;1.7639999;0.147;0.196;1;1142357814
-266.711784;1.7639999;0.147;0.196;1;1142375896
-266.691642;1.813;0.147;0.196;1;1142396038
-266.677110;1.7639999;0.147;0.147;1;1142410570
-266.666514;1.7149999;0.196;0.147;1;1142421166
-266.651584;1.813;0.098;0.147;1;1142436096
-266.639519;1.7639999;0.147;0.147;1;1142448161
-266.627254;1.813;0.147;0.098;1;1142460426
-266.611768;1.813;0.147;0.244999984;1;1142475912
-266.591602;1.7639999;0.147;0.147;1;1142496078
-266.578994;1.7639999;0.147;0.196;1;1142508686
-266.567502;1.7639999;0.098;0.147;1;1142520178
-266.552461;1.7149999;0.147;0.196;1;1142535219
-266.518444;1.7639999;0.196;0.147;1;1142569236
-266.496928;1.7639999;0.147;0.196;1;1142590752
-266.484834;1.813;0.098;0.147;1;1142602846
-266.470192;1.7639999;0.098;0.147;1;1142617488
-266.446269;1.813;0.147;0.147;1;1142641411
-266.435401;1.7639999;0.147;0.147;1;1142652279
-266.415959;1.7639999;0.098;0.147;1;1142671721
-266.401661;1.813;0.098;0.196;1;1142686019
-266.368096;1.7639999;0.147;0.147;1;1142719584
-266.354838;1.7639999;0.147;0.147;1;1142732842
-266.342025;1.7639999;0.147;0.244999984;1;1142745655
-266.321697;1.7639999;0.147;0.196;1;1142765983
-266.310528;1.7639999;0.098;0.196;1;1142777152
-266.294210;1.7149999;0.147;0.196;1;1142793470
-266.282083;1.7639999;0.098;0.147;1;1142805597
-266.269908;1.7639999;0.098;0.147;1;1142817772
-266.242840;1.813;0.098;0.196;1;1142844840
-266.221550;1.7639999;0.147;0.196;1;1142866130
-266.209276;1.813;0.098;0.147;1;1142878404
-266.198647;1.7639999;0.147;0.196;1;1142889033
-266.187472;1.7639999;0.098;0.196;1;1142900208
-266.176423;1.7149999;0.147;0.196;1;1142911257
-266.163133;1.7639999;0.098;0.196;1;1142924547
-266.151280;1.7149999;0.196;0.147;1;1142936400
-266.136637;1.7639999;0.098;0.147;1;1142951043
-266.112938;1.7149999;0.147;0.147;1;1142974742
-266.095993;1.7639999;0.098;0.147;1;1142991687
-266.083104;1.7639999;0.098;0.147;1;1143004576
-266.071736;1.7639999;0.147;0.147;1;1143015944
-266.048918;1.7639999;0.098;0.147;1;1143038762
-266.029984;1.7639999;0.147;0.196;1;1143057696
-266.011583;1.7639999;0.147;0.147;1;1143076097
-265.996644;1.7639999;0.098;0.196;1;1143091036
-265.985021;1.7639999;0.147;0.196;1;1143102659
-265.950699;1.7149999;0.147;0.196;1;1143136981
-265.930816;1.7639999;0.147;0.196;1;1143156864
-265.918933;1.813;0.098;0.147;1;1143168747
-265.901716;1.813;0.098;0.196;1;1143185964
-265.888374;1.7639999;0.147;0.147;1;1143199306
-265.870290;1.7639999;0.147;0.147;1;1143217390
-265.841666;1.7639999;0.098;0.196;1;1143246014
-265.830564;1.7639999;0.098;0.196;1;1143257116
-265.816410;1.7149999;0.147;0.196;1;1143271270
-265.804302;1.813;0.098;0.147;1;1143283378
-265.779963;1.7639999;0.147;0.196;1;1143307717
-265.768137;1.7149999;0.098;0.147;1;1143319543
-265.751889;1.7639999;0.147;0.147;1;1143335791
-265.720606;1.7639999;0.147;0.147;1;1143367074
-265.703693;1.7639999;0.147;0.147;1;1143383987
-265.689461;1.7149999;0.098;0.196;1;1143398219
-265.675987;1.7639999;0.098;0.196;1;1143411693
-265.664798;1.7639999;0.147;0.294;1;1143422882
-265.647431;1.7639999;0.098;0.147;1;1143440249
-265.636901;1.7639999;0.147;0.147;1;1143450779
-265.610015;1.7149999;0.098;0.147;1;1143477665
-265.598781;1.7639999;0.147;0.196;1;1143488899
-265.587675;1.813;0.098;0.147;1;1143500005
-265.576460;1.7639999;0.196;0.147;1;1143511220
-265.565559;1.7639999;0.147;0.196;1;1143522121
-265.553321;1.7639999;0.147;0.196;1;1143534359
-265.510911;1.7639999;0.147;0.196;1;1143576769
-265.443871;1.7639999;0.147;0.049;1;1143643809
-265.432606;1.7639999;0.147;0.147;1;1143655074
-265.409511;1.7639999;0.147;0.196;1;1143678169
-265.394929;1.7149999;0.147;0.147;1;1143692751
-265.381630;1.813;0.098;0.244999984;1;1143706050
-265.367976;1.7639999;0.098;0.196;1;1143719704
-265.356879;1.7639999;0.098;0.196;1;1143730801
-265.342952;1.813;0.147;0.196;1;1143744728
-265.321787;1.7639999;0.147;0.098;1;1143765893
-265.309940;1.813;0.098;0.147;1;1143777740
-265.288495;1.7639999;0.147;0.147;1;1143799185
-265.277155;1.7639999;0.098;0.196;1;1143810525
-265.249429;1.813;0.147;0.196;1;1143838251
-265.237120;1.7149999;0.147;0.196;1;1143850560
-265.221647;1.7639999;0.147;0.147;1;1143866033
-265.209664;1.7639999;0.147;0.147;1;1143878016
-265.195564;1.7149999;0.147;0.196;1;1143892116
-265.182977;1.7639999;0.098;0.244999984;1;1143904703
-265.171932;1.7639999;0.098;0.147;1;1143915748
-265.147943;1.7639999;0.147;0.196;1;1143939737
-265.130756;1.7639999;0.147;0.196;1;1143956924
-265.119714;1.813;0.147;0.196;1;1143967966
-265.108258;1.7639999;0.147;0.196;1;1143979422
-265.097398;1.813;0.196;0.196;1;1143990282
-265.083648;1.7639999;0.147;0.244999984;1;1144004032
-265.041809;1.7639999;0.147;0.147;1;1144045871
-265.002403;1.7639999;0.098;0.147;1;1144085277
-264.980626;1.7149999;0.147;0.196;1;1144107054
-264.969842;1.7639999;0.147;0.147;1;1144117838
-264.956443;1.7639999;0.147;0.147;1;1144131237
-264.945888;1.7639999;0.196;0.196;1;1144141792
-264.934677;1.7639999;0.147;0.196;1;1144153003
-264.924014;1.7639999;0.147;0.244999984;1;1144163666
-264.904803;1.7149999;0.147;0.196;1;1144182877
-264.882388;1.813;0.098;0.244999984;1;1144205292
-264.871872;1.813;0.147;0.196;1;1144215808
-264.860510;1.7149999;0.098;0.196;1;1144227170
-264.849902;1.7639999;0.147;0.147;1;1144237778
-264.836162;1.813;0.098;0.196;1;1144251518
-264.812700;1.7639999;0.147;0.147;1;1144274980
-264.792867;1.7639999;0.147;0.196;1;1144294813
-264.781271;1.7639999;0.147;0.147;1;1144306409
-264.769392;1.7639999;0.147;0.244999984;1;1144318288
-264.752903;1.7639999;0.147;0.196;1;1144334777
-264.732920;1.7639999;0.098;0.196;1;1144354760
-264.721457;1.813;0.049;0.147;1;1144366223
-264.702878;1.813;0.098;0.147;1;1144384802
-264.680827;1.813;0.098;0.147;1;1144406853
-264.667087;1.7639999;0.098;0.147;1;1144420593
-264.650355;1.7639999;0.098;0.196;1;1144437325
-264.639694;1.813;0.098;0.147;1;1144447986
-264.626117;1.7639999;0.147;0.147;1;1144461563
-264.594407;1.7639999;0.098;0.196;1;1144493273
-264.579568;1.7639999;0.098;0.147;1;1144508112
-264.551710;1.7639999;0.098;0.196;1;1144535970
-264.538515;1.813;0.147;0.147;1;1144549165
-264.527593;1.7149999;0.098;0.196;1;1144560087
-264.514962;1.813;0.098;0.196;1;1144572718
-264.492433;1.7639999;0.147;0.147;1;1144595247
-264.481348;1.7639999;0.098;0.244999984;1;1144606332
-264.470638;1.7639999;0.196;0.196;1;1144617042
-264.452389;1.7639999;0.098;0.196;1;1144635291
-264.432878;1.7149999;0.11363184;0.031611204;-0.23963332;1144654802
-264.412817;1.7639999;0.147;0.196;1;1144674863
-264.401535;1.813;0.147;0.147;1;1144686145
-264.382833;1.7639999;0.147;0.147;1;1144704847
-264.371638;1.7639999;0.098;0.147;1;1144716042
-264.343022;1.7639999;0.147;0.147;1;1144744658
-264.325203;1.7639999;0.147;0.196;1;1144762477
-264.313691;1.813;0.147;0.196;1;1144773989
-264.301528;1.7639999;0.147;0.147;1;1144786152
-264.288524;1.7149999;0.147;0.147;1;1144799156
-264.268158;1.7639999;0.098;0.147;1;1144819522
-264.255382;1.7639999;0.098;0.196;1;1144832298
-264.243609;1.7639999;0.147;0.147;1;1144844071
-264.231747;1.7639999;0.147;0.196;1;1144855933
-264.216720;1.7639999;0.098;0.147;1;1144870960
-264.173505;1.7639999;0.147;0.147;1;1144914175
-264.156022;1.7639999;0.147;0.244999984;1;1144931658
-264.134158;1.7639999;0.098;0.196;1;1144953522
-264.107072;1.813;0.147;0.147;1;1144980608
-264.088030;1.7639999;0.098;0.147;1;1144999650
-264.076855;1.813;0.098;0.196;1;1145010825
-264.063461;1.813;0.098;0.196;1;1145024219
-264.051071;1.7639999;0.147;0.147;1;1145036609
-264.035912;1.813;0.147;0.196;1;1145051768
-264.012842;1.7639999;0.196;0.196;1;1145074838
-263.992812;1.813;0.147;0.196;1;1145094868
-263.981878;1.7639999;0.147;0.196;1;1145105802
-263.962831;1.7639999;0.098;0.196;1;1145124849
-263.950318;1.7149999;0.147;0.147;1;1145137362
-263.920890;1.7639999;0.098;0.196;1;1145166790
-263.909809;1.7639999;0.098;0.196;1;1145177871
-263.898894;1.7639999;0.147;0.147;1;1145188786
-263.875938;1.7149999;0.147;0.196;1;1145211742
-263.858844;1.7639999;0.147;0.196;1;1145228836
-263.847721;1.813;0.147;0.196;1;1145239959
-263.836234;1.7639999;0.147;0.196;1;1145251446
-263.808928;1.7639999;0.147;0.196;1;1145278752
-263.797186;1.813;0.098;0.147;1;1145290494
-263.784545;1.813;0.147;0.147;1;1145303135
-263.773982;1.7149999;0.098;0.147;1;1145313698
-263.721948;1.7639999;0.147;0.196;1;1145365732
-263.702695;1.7639999;0.147;0.196;1;1145384985
-263.690762;1.7639999;0.098;0.196;1;1145396918
-263.678170;1.7639999;0.098;0.244999984;1;1145409510
-263.662050;1.813;0.098;0.147;1;1145425630
-263.651745;1.7639999;0.147;0.196;1;1145435935
-263.640736;1.7639999;0.196;0.147;1;1145446944
-263.618561;1.813;0.098;0.147;1;1145469119
-263.607408;1.813;0.147;0.196;1;1145480272
-263.595773;1.7639999;0.147;0.196;1;1145491907
-263.583021;1.813;0.098;0.147;1;1145504659
-263.561533;1.813;0.098;0.147;1;1145526147
-263.548553;1.7639999;0.147;0.196;1;1145539127
-263.534243;1.7639999;0.098;0.147;1;1145553437
-263.522474;1.813;0.147;0.196;1;1145565206
-263.504732;1.7639999;0.147;0.147;1;1145582948
-263.481577;1.7639999;0.098;0.147;1;1145606103
-263.469823;1.7149999;0.196;0.196;1;1145617857
-263.449039;1.813;0.147;0.196;1;1145638641
-263.436484;1.7639999;0.147;0.098;1;1145651196
-263.410050;1.7639999;0.147;0.196;1;1145677630
-263.398617;1.813;0.147;0.196;1;1145689063
-263.387547;1.813;0.196;0.147;1;1145700133
-263.375169;1.7639999;0.147;0.147;1;1145712511
-263.364292;1.7639999;0.147;0.196;1;1145723388
-263.351331;1.7639999;0.147;0.244999984;1;1145736349
-263.340228;1.7639999;0.196;0.196;1;1145747452
-263.328013;1.7149999;0.098;0.196;1;1145759667
-263.308060;1.813;0.098;0.196;1;1145779620
-263.266415;1.7639999;0.147;0.147;1;1145821265
-263.251994;1.7639999;0.147;0.147;1;1145835686
-263.228996;1.7639999;0.147;0.147;1;1145858684
-263.217478;1.7149999;0.098;0.147;1;1145870202
-263.206374;1.7639999;0.147;0.196;1;1145881306
-263.180737;1.7639999;0.147;0.244999984;1;1145906943
-263.167119;1.7639999;0.147;0.196;1;1145920561
-263.149292;1.7639999;0.147;0.196;1;1145938388
-263.138101;1.813;0.098;0.196;1;1145949579
-263.114854;1.813;0.196;0.196;1;1145972826
-263.103753;1.7149999;0.147;0.147;1;1145983927
-263.077270;1.7639999;0.098;0.196;1;1146010410
-263.066855;1.7639999;0.098;0.196;1;1146020825
-263.053363;1.813;0.147;0.244999984;1;1146034317
-263.042759;1.7639999;0.098;0.147;1;1146044921
-263.031241;1.7639999;0.098;0.196;1;1146056439
-263.007417;1.813;0.147;0.147;1;1146080263
-262.995664;1.7639999;0.196;0.196;1;1146092016
-262.983059;1.7149999;0.098;0.196;1;1146104621
-262.972432;1.7639999;0.147;0.147;1;1146115248
-262.955405;1.813;0.147;0.147;1;1146132275
-262.936673;1.813;0.098;0.196;1;1146151007
-262.924611;1.7639999;0.147;0.244999984;1;1146163069
-262.910286;1.7639999;0.098;0.196;1;1146177394
-262.891062;1.7639999;0.147;0.196;1;1146196618
-262.880549;1.7639999;0.098;0.147;1;1146207131
-262.868883;1.7149999;0.196;0.196;1;1146218797
-262.830552;1.813;0.098;0.147;1;1146257128
-262.812022;1.7639999;0.147;0.147;1;1146275658
-262.791149;1.7149999;0.147;0.147;1;1146296531
-262.780020;1.7639999;0.098;0.196;1;1146307660
-262.768165;1.7639999;0.147;0.147;1;1146319515
-262.752741;1.813;0.196;0.147;1;1146334939
-262.741013;1.7639999;0.098;0.196;1;1146346667
-262.729885;1.7149999;0.147;0.196;1;1146357795
-262.718721;1.7149999;0.147;0.147;1;1146368959
-262.706637;1.813;0.147;0.196;1;1146381043
-262.688579;1.7639999;0.147;0.196;1;1146399101
-262.677849;1.813;0.147;0.147;1;1146409831
-262.665018;1.7639999;0.147;0.147;1;1146422662
-262.640568;1.813;0.098;0.196;1;1146447112
-262.629748;1.7639999;0.196;0.196;1;1146457932
-262.616282;1.7149999;0.147;0.244999984;1;1146471398
-262.602826;1.7639999;0.147;0.147;1;1146484854
-262.578864;1.7639999;0.147;0.196;1;1146508816
-262.567736;1.7639999;0.147;0.196;1;1146519944
-262.556857;1.7639999;0.098;0.196;1;1146530823
-262.544986;1.813;0.147;0.196;1;1146542694
-262.530155;1.813;0.147;0.147;1;1146557525
-262.517963;1.7639999;0.147;0.196;1;1146569717
-262.501090;1.7149999;0.147;0.196;1;1146586590
-262.489480;1.7639999;0.098;0.196;1;1146598200
-262.477366;1.813;0.147;0.196;1;1146610314
-262.465828;1.7149999;0.147;0.196;1;1146621852
-262.448407;1.7149999;0.098;0.244999984;1;1146639273
-262.436283;1.7639999;0.147;0.196;1;1146651397
-262.401177;1.7639999;0.147;0.196;1;1146686503
-262.375389;1.813;0.098;0.147;1;1146712291
-262.347635;1.813;0.098;0.196;1;1146740045
-262.336856;1.813;0.147;0.098;1;1146750824
-262.312831;1.7639999;0.098;0.196;1;1146774849
-262.301821;1.7149999;0.147;0.244999984;1;1146785859
-262.289124;1.813;0.049;0.196;1;1146798556
-262.278584;1.862;0.147;0.147;1;1146809096
-262.267779;1.7639999;0.147;0.196;1;1146819901
-262.252370;1.813;0.098;0.147;1;1146835310
-262.232281;1.7149999;0.147;0.147;1;1146855399
-262.217392;1.7149999;0.147;0.147;1;1146870288
-262.204633;1.7639999;0.147;0.147;1;1146883047
-262.179155;1.7639999;0.147;0.196;1;1146908525
-262.168842;1.7639999;0.098;0.196;1;1146918838
-262.156062;1.7639999;0.196;0.147;1;1146931618
-262.144613;1.813;0.147;0.196;1;1146943067
-262.130926;1.7149999;0.147;0.244999984;1;1146956754
-262.119824;1.7149999;0.147;0.147;1;1146967856
-262.106935;1.7639999;0.147;0.244999984;1;1146980745
-262.080919;1.813;0.147;0.147;1;1147006761
-262.069622;1.7639999;0.147;0.147;1;1147018058
-262.047770;1.813;0.147;0.147;1;1147039910
-262.034874;1.7639999;0.147;0.196;1;1147052806
-262.011758;1.813;0.147;0.147;1;1147075922
-261.979859;1.7639999;0.147;0.147;1;1147107821
-261.960220;1.7149999;0.147;0.196;1;1147127460
-261.938903;1.7149999;0.147;0.196;1;1147148777
-261.911204;1.7639999;0.098;0.147;1;1147176476
-261.899845;1.813;0.147;0.196;1;1147187835
-261.885545;1.813;0.098;0.147;1;1147202135
-261.873322;1.7639999;0.098;0.098;1;1147214358
-261.856145;1.7639999;0.147;0.098;1;1147231535
-261.845846;1.7639999;0.098;0.196;1;1147241834
-261.834423;1.7639999;0.098;0.147;1;1147253257
-261.821929;1.7639999;0.147;0.196;1;1147265751
-261.802804;1.7639999;0.147;0.196;1;1147284876
-261.784274;1.7639999;0.147;0.196;1;1147303406
-261.772232;1.7639999;0.147;0.147;1;1147315448
-261.755889;1.7639999;0.098;0.147;1;1147331791
-261.732861;1.7149999;0.147;0.147;1;1147354819
-261.721428;1.7639999;0.147;0.147;1;1147366252
-261.710354;1.7639999;0.147;0.147;1;1147377326
-261.692761;1.7149999;0.147;0.147;1;1147394919
-261.679659;1.7639999;0.147;0.147;1;1147408021
-261.666959;1.7639999;0.147;0.196;1;1147420721
-261.653338;1.7639999;0.147;0.196;1;1147434342
-261.639357;1.7149999;0.147;0.244999984;1;1147448323
-261.622878;1.7149999;0.147;0.196;1;1147464802
-261.596548;1.7639999;0.147;0.147;1;1147491132
-261.585710;1.7639999;0.098;0.098;1;1147501970
-261.571299;1.7639999;0.147;0.147;1;1147516381
-261.534283;1.813;0.098;0.147;1;1147553397
-261.522053;1.7149999;0.147;0.147;1;1147565627
-261.510549;1.7639999;0.147;0.244999984;1;1147577131
-261.499626;1.7639999;0.147;0.147;1;1147588054
-261.487195;1.813;0.147;0.244999984;1;1147600485
-261.475712;1.813;0.098;0.196;1;1147611968
-261.463138;1.813;0.098;0.196;1;1147624542
-261.446370;1.7639999;0.147;0.147;1;1147641310
-261.435724;1.7149999;0.147;0.147;1;1147651956
-261.412917;1.813;0.098;0.147;1;1147674763
-261.401782;1.7639999;0.196;0.147;1;1147685898
-261.390791;1.7639999;0.098;0.147;1;1147696889
-261.379586;1.7639999;0.098;0.196;1;1147708094
-261.368937;1.7149999;0.196;0.196;1;1147718743
-261.352441;1.7639999;0.147;0.196;1;1147735239
-261.321971;1.7639999;0.098;0.196;1;1147765709
-261.310827;1.7639999;0.098;0.196;1;1147776853
-261.299218;1.813;0.147;0.147;1;1147788462
-261.288120;1.7639999;0.147;0.147;1;1147799560
-261.275713;1.813;0.098;0.098;1;1147811967
-261.247956;1.813;0.147;0.147;1;1147839724
-261.234428;1.7639999;0.196;0.196;1;1147853252
-261.221568;1.813;0.098;0.196;1;1147866112
-261.184879;1.7639999;0.147;0.244999984;1;1147902801
-261.172110;1.7639999;0.147;0.147;1;1147915570
-261.160893;1.7639999;0.147;0.196;1;1147926787
-261.144790;1.7639999;0.098;0.147;1;1147942890
-261.115019;1.7639999;0.147;0.196;1;1147972661
-261.098505;1.7639999;0.147;0.196;1;1147989175
-261.083694;1.7639999;0.147;0.147;1;1148003986
-261.072440;1.813;0.147;0.147;1;1148015240
-261.054744;1.813;0.147;0.196;1;1148032936
-261.041194;1.7639999;0.147;0.196;1;1148046486
-261.030547;1.813;0.147;0.196;1;1148057133
-261.011832;1.7149999;0.098;0.244999984;1;1148075848
-260.999019;1.7639999;0.147;0.147;1;1148088661
-260.984821;1.7639999;0.147;0.098;1;1148102859
-260.972035;1.7639999;0.147;0.196;1;1148115645
-260.957820;1.813;0.098;0.244999984;1;1148129860
-260.942850;1.7639999;0.098;0.147;1;1148144830
-260.931608;1.813;0.098;0.147;1;1148156072
-260.919260;1.813;0.147;0.147;1;1148168420
-260.905669;1.7149999;0.196;0.147;1;1148182011
-260.894725;1.7639999;0.147;0.147;1;1148192955
-260.883753;1.7639999;0.147;0.244999984;1;1148203927
-260.872753;1.7639999;0.196;0.196;1;1148214927
-260.861262;1.7639999;0.147;0.196;1;1148226418
-260.837012;1.7639999;0.098;0.294;1;1148250668
-260.812880;1.7639999;0.098;0.147;1;1148274800
-260.801108;1.7639999;0.098;0.196;1;1148286572
-260.790795;1.7639999;0.147;0.147;1;1148296885
-260.779974;1.813;0.098;0.098;1;1148307706
-260.768801;1.7639999;0.147;0.098;1;1148318879
-260.754115;1.7639999;0.147;0.196;1;1148333565
-260.712860;1.7639999;0.147;0.196;1;1148374820
-260.701228;1.7639999;0.147;0.244999984;1;1148386452
-260.668285;1.7639999;0.098;0.147;1;1148419395
-260.655685;1.7149999;0.147;0.196;1;1148431995
-260.638351;1.7639999;0.098;0.196;1;1148449329
-260.625109;1.7639999;0.147;0.147;1;1148462571
-260.613514;1.7149999;0.147;0.196;1;1148474166
-260.592852;1.813;0.147;0.196;1;1148494828
-260.581595;1.7639999;0.098;0.196;1;1148506085
-260.568031;1.813;0.147;0.196;1;1148519649
-260.554802;1.813;0.098;0.244999984;1;1148532878
-260.544001;1.813;0.098;0.196;1;1148543679
-260.525796;1.7639999;0.098;0.147;1;1148561884
-260.513547;1.7639999;0.147;0.196;1;1148574133
-260.481844;1.7639999;0.098;0.147;1;1148605836
-260.468040;1.7639999;0.098;0.196;1;1148619640
-260.448189;1.7639999;0.147;0.147;1;1148639491
-260.435516;1.7149999;0.147;0.196;1;1148652164
-260.423511;1.813;0.147;0.196;1;1148664169
-260.412122;1.7639999;0.098;0.196;1;1148675558
-260.401939;1.7639999;0.147;0.196;1;1148685741
-260.390409;1.7149999;0.147;0.196;1;1148697271
-260.378030;1.7149999;0.098;0.147;1;1148709650
-260.364492;1.813;0.147;0.147;1;1148723188
-260.352495;1.7639999;0.147;0.098;1;1148735185
-260.340830;1.7639999;0.098;0.147;1;1148746850
-260.329766;1.7639999;0.098;0.196;1;1148757914
-260.311678;1.7639999;0.098;0.147;1;1148776002
-260.299197;1.7639999;0.049;0.196;1;1148788483
-260.288116;1.7639999;0.147;0.196;1;1148799564
-260.277174;1.813;0.147;0.244999984;1;1148810506
-260.266239;1.7639999;0.147;0.147;1;1148821441
-260.222060;1.7639999;0.147;0.196;1;1148865620
-260.197906;1.813;0.098;0.196;1;1148889774
-260.184815;1.813;0.147;0.147;1;1148902865
-260.173181;1.813;0.196;0.196;1;1148914499
-260.162384;1.7639999;0.147;0.244999984;1;1148925296
-260.149830;1.7149999;0.147;0.196;1;1148937850
-260.136505;1.7639999;0.147;0.196;1;1148951175
-260.124065;1.7639999;0.147;0.196;1;1148963615
-260.112762;1.813;0.147;0.196;1;1148974918
-260.101730;1.813;0.147;0.147;1;1148985950
-260.076933;1.7639999;0.147;0.147;1;1149010747
-260.063438;1.7639999;0.098;0.196;1;1149024242
-260.052556;1.7639999;0.147;0.196;1;1149035124
-260.037533;1.7639999;0.147;0.196;1;1149050147
-260.023136;1.7639999;0.147;0.147;1;1149064544
-260.012240;1.7639999;0.147;0.196;1;1149075440
-259.996046;1.7639999;0.147;0.196;1;1149091634
-259.981580;1.813;0.147;0.147;1;1149106100
-259.962845;1.7149999;0.196;0.196;1;1149124835
-259.950796;1.7639999;0.147;0.196;1;1149136884
-259.931418;1.7639999;0.147;0.196;1;1149156262
-259.905636;1.813;0.049;0.196;1;1149182044
-259.893206;1.813;0.049;0.196;1;1149194474
-259.881192;1.813;0.098;0.196;1;1149206488
-259.867976;1.7639999;0.147;0.196;1;1149219704
-259.856777;1.7639999;0.098;0.147;1;1149230903
-259.820054;1.813;0.098;0.244999984;1;1149267626
-259.808645;1.7639999;0.147;0.196;1;1149279035
-259.778516;1.813;0.147;0.196;1;1149309164
-259.767875;1.813;0.098;0.196;1;1149319805
-259.744111;1.813;0.147;0.196;1;1149343569
-259.717775;1.7639999;0.098;0.244999984;1;1149369905
-259.704756;1.7639999;0.098;0.147;1;1149382924
-259.677695;1.7639999;0.098;0.196;1;1149409985
-259.666701;1.813;0.147;0.196;1;1149420979
-259.655470;1.7639999;0.147;0.196;1;1149432210
-259.644880;1.7639999;0.147;0.196;1;1149442800
-259.632613;1.7639999;0.098;0.147;1;1149455067
-259.611749;1.7149999;0.147;0.147;1;1149475931
-259.600576;1.7149999;0.147;0.196;1;1149487104
-259.579960;1.7639999;0.147;0.196;1;1149507720
-259.567484;1.7639999;0.147;0.196;1;1149520196
-259.549262;1.7639999;0.147;0.147;1;1149538418
-259.538881;1.7639999;0.147;0.196;1;1149548799
-259.526839;1.813;0.147;0.244999984;1;1149560841
-259.516047;1.813;0.098;0.147;1;1149571633
-259.504777;1.7639999;0.147;0.147;1;1149582903
-259.493942;1.813;0.147;0.147;1;1149593738
-259.481971;1.7639999;0.196;0.098;1;1149605709
-259.469867;1.7639999;0.098;0.147;1;1149617813
-259.455039;1.813;0.098;0.196;1;1149632641
-259.443834;1.7149999;0.147;0.196;1;1149643846
-259.427886;1.7639999;0.098;0.196;1;1149659794
-259.395077;1.7639999;0.098;0.147;1;1149692603
-259.380395;1.7639999;0.147;0.196;1;1149707285
-259.351730;1.7639999;0.147;0.196;1;1149735950
-259.340090;1.7149999;0.147;0.196;1;1149747590
-259.328781;1.7639999;0.147;0.196;1;1149758899
-259.315453;1.7149999;0.147;0.098;1;1149772227
-259.304702;1.813;0.098;0.196;1;1149782978
-259.281110;1.813;0.098;0.196;1;1149806570
-259.269999;1.7149999;0.147;0.244999984;1;1149817681
-259.242566;1.7639999;0.098;0.147;1;1149845114
-259.231786;1.7639999;0.147;0.196;1;1149855894
-259.219097;1.7639999;0.147;0.196;1;1149868583
-259.207085;1.7639999;0.098;0.196;1;1149880595
-259.180946;1.813;0.098;0.098;1;1149906734
-259.169562;1.7639999;0.147;0.098;1;1149918118
-259.142255;1.7639999;0.147;0.196;1;1149945425
-259.131149;1.7639999;0.098;0.147;1;1149956531
-259.119009;1.7639999;0.147;0.244999984;1;1149968671
-259.105668;1.7639999;0.098;0.196;1;1149982012
-259.094819;1.7639999;0.147;0.196;1;1149992861
-259.080146;1.7639999;0.147;0.196;1;1150007534
-259.069981;1.7639999;0.147;0.196;1;1150017699
-259.054971;1.813;0.098;0.147;1;1150032709
-259.043911;1.813;0.147;0.147;1;1150043769
-259.032918;1.7639999;0.098;0.147;1;1150054762
-258.981709;1.7149999;0.098;0.196;1;1150105971
-258.966209;1.813;0.049;0.147;1;1150121471
-258.953786;1.813;0.147;0.196;1;1150133894
-258.941496;1.7149999;0.147;0.147;1;1150146184
-258.930992;1.7639999;0.098;0.196;1;1150156688
-258.919662;1.7149999;0.147;0.147;1;1150168018
-258.907254;1.813;0.147;0.196;1;1150180426
-258.893796;1.7639999;0.098;0.196;1;1150193884
-258.880608;1.7639999;0.147;0.196;1;1150207072
-258.867650;1.7639999;0.147;0.196;1;1150220030
-258.850476;1.7149999;0.147;0.196;1;1150237204
-258.839702;1.7639999;0.147;0.147;1;1150247978
-258.817389;1.7639999;0.098;0.147;1;1150270291
-258.801614;1.813;0.098;0.098;1;1150286066
-258.778513;1.7639999;0.147;0.147;1;1150309167
-258.762886;1.7639999;0.098;0.196;1;1150324794
-258.750933;1.7639999;0.147;0.196;1;1150336747
-258.737213;1.7639999;0.098;0.196;1;1150350467
-258.718095;1.7639999;0.147;0.244999984;1;1150369585
-258.706604;1.7639999;0.147;0.147;1;1150381076
-258.691418;1.7639999;0.147;0.147;1;1150396262
-258.680672;1.7149999;0.147;0.098;1;1150407008
-258.669122;1.7639999;0.147;0.196;1;1150418558
-258.646428;1.7639999;0.196;0.147;1;1150441252
-258.635467;1.7639999;0.147;0.147;1;1150452213
-258.622365;1.7149999;0.147;0.244999984;1;1150465315
-258.612029;1.7639999;0.196;0.196;1;1150475651
-258.550673;1.7149999;0.098;0.147;1;1150537007
-258.538533;1.7639999;0.098;0.196;1;1150549147
-258.525633;1.813;0.147;0.196;1;1150562047
-258.509071;1.7639999;0.147;0.147;1;1150578609
-258.498370;1.7639999;0.098;0.196;1;1150589310
-258.486769;1.7639999;0.147;0.196;1;1150600911
-258.475893;1.7639999;0.098;0.196;1;1150611787
-258.464272;1.7639999;0.098;0.196;1;1150623408
-258.449613;1.813;0.098;0.196;1;1150638067
-258.434583;1.7639999;0.147;0.147;1;1150653097
-258.411828;1.7639999;0.147;0.196;1;1150675852
-258.400381;1.7639999;0.098;0.147;1;1150687299
-258.386576;1.813;0.147;0.147;1;1150701104
-258.375819;1.7639999;0.147;0.147;1;1150711861
-258.364037;1.7639999;0.196;0.147;1;1150723643
-258.352855;1.813;0.098;0.196;1;1150734825
-258.335920;1.7639999;0.147;0.098;1;1150751760
-258.322805;1.813;0.147;0.147;1;1150764875
-258.302842;1.7639999;0.196;0.147;1;1150784838
-258.289198;1.7639999;0.147;0.294;1;1150798482
-258.278958;1.7639999;0.049;0.196;1;1150808722
-258.265931;1.7639999;0.098;0.147;1;1150821749
-258.254773;1.813;0.098;0.147;1;1150832907
-258.241520;1.813;0.098;0.147;1;1150846160
-258.229858;1.7639999;0.196;0.196;1;1150857822
-258.218899;1.813;0.147;0.196;1;1150868781
-258.200160;1.7639999;0.147;0.196;1;1150887520
-258.188785;1.7639999;0.147;0.147;1;1150898895
-258.177467;1.7639999;0.098;0.196;1;1150910213
-258.139136;1.862;0.098;0.244999984;1;1150948544
-258.120498;1.7639999;0.196;0.147;1;1150967182
-258.109144;1.7639999;0.147;0.147;1;1150978536
-258.096833;1.813;0.147;0.147;1;1150990847
-258.085863;1.7639999;0.147;0.147;1;1151001817
-258.074234;1.7639999;0.147;0.147;1;1151013446
-258.063804;1.7639999;0.098;0.147;1;1151023876
-258.046803;1.7639999;0.098;0.147;1;1151040877
-258.025477;1.7639999;0.098;0.147;1;1151062203
-258.011273;1.7639999;0.147;0.147;1;1151076407
-257.997829;1.813;0.147;018;-0.24371218;1151089851
-257.986569;1.7639999;0.147;0.196;1;1151101111
-257.975850;1.7639999;0.098;0.147;1;1151111830
-257.964216;1.7149999;0.147;0.196;1;1151123464
-257.952260;1.7639999;0.147;0.196;1;1151135420
-257.941754;1.813;0.098;0.196;1;1151145926
-257.927122;1.7639999;0.147;0.147;1;1151160558
-257.909802;1.7639999;0.196;0.196;1;1151177878
-257.886065;1.813;0.147;0.147;1;1151201615
-257.873871;1.7149999;0.147;0.147;1;1151213809
-257.851788;1.813;0.147;0.196;1;1151235892
-257.820643;1.7639999;0.098;0.196;1;1151267037
-257.801724;1.7639999;0.098;0.147;1;1151285956
-257.789826;1.7149999;0.147;0.147;1;1151297854
-257.778583;1.7639999;0.147;0.196;1;1151309097
-257.761010;1.7639999;0.147;0.147;1;1151326670
-257.725479;1.813;0.147;0.196;1;1151362201
-257.713853;1.7149999;0.147;0.196;1;1151373827
-257.700969;1.813;0.147;0.147;1;1151386711
-257.689334;1.813;0.147;0.196;1;1151398346
-257.677491;1.813;0.098;0.196;1;1151410189
-257.664715;1.813;0.147;0.196;1;1151422965
-257.650744;1.7639999;0.098;0.147;1;1151436936
-257.639914;1.813;0.098;0.147;1;1151447766
-257.628760;1.7639999;0.098;0.244999984;1;1151458920
-257.612904;1.7149999;0.147;0.147;1;1151474776
-257.601627;1.7639999;0.147;0.147;1;1151486053
-257.577948;1.7639999;0.196;0.196;1;1151509732
-257.564032;1.813;0.098;0.147;1;1151523648
-257.537776;1.7639999;0.098;0.196;1;1151549904
-257.512486;1.7639999;0.196;0.196;1;1151575194
-257.489838;1.813;0.147;0.147;1;1151597842
-257.478279;1.7639999;0.098;0.196;1;1151609401
-257.467412;1.7639999;0.098;0.196;1;1151620268
-257.450771;1.7149999;0.196;0.196;1;1151636909
-257.433857;1.7639999;0.098;0.196;1;1151653823
-257.415255;1.7639999;0.098;0.098;1;1151672425
-257.402420;1.7639999;0.147;0.196;1;1151685260
-257.376707;1.7639999;0.098;0.244999984;1;1151710973
-257.361631;1.7149999;0.147;0.244999984;1;1151726049
-257.349254;1.7639999;0.147;0.244999984;1;1151738426
-257.336144;1.7149999;0.147;0.196;1;1151751536
-257.325973;1.7639999;;0.02;1;1151761707
-257.286650;1.7639999;0.147;0.196;1;1151801030
-257.272210;1.813;0.098;0.147;1;1151815470
-257.257558;1.813;0.098;0.147;1;1151830122
-257.246852;1.7639999;0.196;0.196;1;1151840828
-257.234407;1.813;0.147;0.147;1;1151853273
-257.222580;1.7149999;0.147;0.147;1;1151865100
-257.211700;1.813;0.147;0.147;1;1151875980
-257.191817;1.7639999;0.098;0.147;1;1151895863
-257.179968;1.7639999;0.147;0.196;1;1151907712
-257.164060;;840;377;4247;1151923620
-257.153603;1.7639999;0.098;0.147;1;1151934077
-257.138648;1.7639999;0.098;0.244999984;1;1151949032
-257.127354;1.7639999;0.049;0.196;1;1151960326
-257.115704;1.7639999;0.098;0.196;1;1151971976
-257.104882;1.7639999;0.147;0.196;1;1151982798
-257.080722;1.813;0.098;0.147;1;1152006958
-257.064345;1.7639999;0.147;0.196;1;1152023335
-257.052990;1.813;0.147;0.196;1;1152034690
-257.041753;1.7639999;0.098;0.196;1;1152045927
-257.030784;1.7639999;0.147;0.147;1;1152056896
-257.015876;1.7639999;0.147;0.147;1;1152071804
-257.003928;1.7639999;0.147;0.196;1;1152083752
-256.972836;1.7639999;0.147;0.147;1;1152114844
-256.957780;1.7639999;0.147;0.147;1;1152129900
-256.938232;1.7639999;0.098;0.147;1;1152149448
-256.913193;1.7639999;0.147;0.196;1;1152174487
-256.902917;1.813;0.147;0.196;1;1152184763
-256.887337;1.813;0.098;0.147;1;1152200343
-256.857407;1.7149999;0.147;0.147;1;1152230273
-256.834137;1.7639999;0.098;0.196;1;1152253543
-256.821674;1.813;0.098;0.196;1;1152266006
-256.801634;1.813;0.098;0.147;1;1152286046
-256.789406;1.7639999;0.098;0.196;1;1152298274
-256.775217;1.813;0.147;0.196;1;1152312463
-256.764912;1.813;0.147;0.147;1;1152322768
-256.747813;1.7639999;0.098;0.196;1;1152339867
-256.734078;1.7639999;0.147;0.196;1;1152353602
-256.710178;1.7639999;0.147;0.147;1;1152377502
-256.700019;1.7639999;0.196;0.196;1;1152387661
-256.682250;1.7639999;0.147;0.147;1;1152405430
-256.670059;1.7639999;0.098;0.147;1;1152417621
-256.658776;1.7639999;0.147;0.147;1;1152428904
-256.647412;1.7639999;0.147;0.196;1;1152440268
-256.635268;1.7639999;0.147;0.196;1;1152452412
-256.611762;1.813;0.098;0.196;1;1152475918
-256.578838;1.7639999;0.147;0.147;1;1152508842
-256.567397;1.7639999;0.147;0.147;1;1152520283
-256.551503;1.7639999;0.147;0.196;1;1152536177
-256.531753;1.7639999;0.147;0.147;1;1152555927
-256.519272;1.7639999;0.147;0.147;1;1152568408
-256.498642;1.7149999;0.147;0.196;1;1152589038
-256.472565;1.7639999;0.098;0.244999984;1;1152615115
-256.461792;1.7149999;0.147;0.147;1;1152625888
-256.448752;1.7639999;0.147;0.147;1;1152638928
-256.404623;1.7639999;0.098;0.147;1;1152683057
-256.381348;1.7639999;0.098;0.196;1;1152706332
-256.367752;1.813;0.098;0.147;1;1152719928
-256.344335;1.7639999;0.147;0.147;1;1152743345
-256.333508;1.7639999;0.147;0.147;1;1152754172
-256.322158;1.7639999;0.098;0.147;1;1152765522
-256.301827;1.7149999;0.196;0.196;1;1152785853
-256.287593;1.813;0.098;0.196;1;1152800087
-256.273699;1.7639999;0.147;0.244999984;1;1152813981
-256.262532;1.7149999;0.098;0.147;1;1152825148
-256.250611;1.7639999;0.098;0.147;1;1152837069
-256.239962;1.7639999;0.147;0.196;1;1152847718
-256.211315;1.7639999;0.098;0.196;1;1152876365
-256.200517;1.7639999;0.147;0.098;1;1152887163
-256.186924;1.7639999;0.147;0.147;1;1152900756
-256.173156;1.7639999;0.147;0.147;1;1152914524
-256.146719;1.7639999;0.098;0.196;1;1152940961
-256.134227;1.7149999;0.196;0.147;1;1152953453
-256.123744;1.813;0.098;0.147;1;1152963936
-256.106046;1.7639999;0.147;0.147;1;1152981634
-256.094857;1.7639999;0.098;0.147;1;1152992823
-256.079165;1.813;0.147;0.196;1;1153008515
-256.068495;1.7639999;0.147;0.147;1;1153019185
-256.054229;1.7639999;0.147;0.147;1;1153033451
-256.043931;1.7639999;0.147;0.147;1;1153043749
-256.032840;1.7639999;0.147;0.147;1;1153054840
-256.021186;1.7639999;0.147;0.147;1;1153066494
-255.989106;1.7149999;0.147;0.147;1;1153098574
-255.976249;1.813;0.098;0.147;1;1153111431
-255.960302;1.7639999;;0.02;1;1153127378
-255.949438;1.7639999;0.147;0.147;1;1153138242
-255.938567;1.7639999;0.147;0.147;1;1153149113
-255.913818;1.813;0.098;0.196;1;1153173862
-255.891724;1.7149999;0.147;0.147;1;1153195956
-255.878332;1.7149999;0.098;0.196;1;1153209348
-255.864838;1.7639999;0.098;0.147;1;1153222842
-255.850581;1.813;0.098;0.196;1;1153237099
-255.839660;1.7639999;0.098;0.196;1;1153248020
-255.825187;1.813;0.147;0.147;1;1153262493
-255.803180;1.813;0.098;0.196;1;1153284500
-255.777107;1.7639999;0.098;0.147;1;1153310573
-255.751918;1.813;0.098;0.196;1;1153335762
-255.738038;1.7639999;0.147;0.196;1;1153349642
-255.707128;1.7639999;0.098;0.147;1;1153380552
-255.681187;1.7639999;0.147;0.147;1;1153406493
-255.669127;1.7639999;0.196;0.147;1;1153418553
-255.658829;1.7639999;;0.02;1;1153428851
-255.647801;1.7639999;0.147;0.147;1;1153439879
-255.634560;1.7149999;0.147;0.244999984;1;1153453120
-255.621828;1.7639999;0.098;0.196;1;1153465852
-255.605765;1.813;0.147;0.196;1;1153481915
-255.578205;1.7639999;0.147;0.196;1;1153509475
-255.554608;1.7639999;0.147;0.098;1;1153533072
-255.534634;1.7639999;0.196;0.147;1;1153553046
-255.511749;1.7149999;0.147;0.147;1;1153575931
-255.491621;1.7639999;0.147;0.147;1;1153596059
-255.479227;1.813;0.147;0.147;1;1153608453
-255.468065;1.7149999;0.147;0.196;1;1153619615
-255.453170;1.7639999;0.098;0.196;1;1153634510
-255.442526;1.7639999;0.098;0.244999984;1;1153645154
-255.430204;1.7149999;0.147;0.147;1;1153657476
-255.411667;1.7639999;0.147;0.147;1;1153676013
-255.399812;1.813;0.147;0.147;1;1153687868
-255.381669;1.813;0.147;0.147;1;1153706011
-255.369712;1.813;0.147;0.147;1;1153717968
-255.356248;1.7639999;0.147;0.196;1;1153731432
-255.344549;1.813;0.147;0.147;1;1153743131
-255.333087;1.7639999;0.147;0.147;1;1153754593
-255.311534;1.7639999;0.196;0.147;1;1153776146
-255.299413;1.813;0.147;0.196;1;1153788267
-255.288250;1.813;0.147;0.196;1;1153799430
-255.277498;1.7639999;0.147;0.147;1;1153810182
-255.265183;1.7149999;0.098;0.147;1;1153822497
-255.251471;1.813;0.098;0.196;1;1153836209
-255.240838;1.7639999;0.196;0.196;1;1153846842
-255.229750;1.7639999;0.147;0.147;1;1153857930
-255.211815;1.7639999;0.147;0.147;1;1153875865
-255.200657;1.7639999;0.147;0.244999984;1;1153887023
-255.187266;1.7639999;0.098;0.196;1;1153900414
-255.176644;1.7639999;0.147;0.147;1;1153911036
-255.165179;1.7149999;0.147;0.147;1;1153922501
-255.106834;1.7639999;0.196;0.147;1;1153980846
-255.093962;1.7639999;0.147;0.147;1;1153993718
-255.081068;1.7639999;0.098;0.196;1;1154006612
-255.067834;1.7149999;0.147;0.196;1;1154019846
-255.051040;1.7639999;0.147;0.147;1;1154036640
-255.037888;1.7639999;0.147;0.196;1;1154049792
-255.021728;1.7639999;0.147;0.196;1;1154065952
-255.004936;1.813;0.098;0.147;1;1154082744
-254.981012;1.7149999;0.098;0.196;1;1154106668
-254.960414;1.7639999;0.147;0.147;1;1154127266
-254.947701;1.7639999;0.098;0.196;1;1154139979
-254.933711;1.7639999;0.147;0.196;1;1154153969
-254.911702;1.7639999;0.098;0.196;1;1154175978
-254.899215;1.7639999;0.147;0.196;1;1154188465
-254.879978;1.7149999;0.147;0.147;1;1154207702
-254.867239;1.813;0.196;0.098;1;1154220441
-254.854159;1.7149999;0.147;0.196;1;1154233521
-254.843972;1.7149999;0.147;0.196;0;1154243708
-254.826662;1.7639999;0.098;0.196;1;1154261018
-254.813518;1.813;0.147;0.196;1;1154274162
-254.800127;1.813;0.147;0.147;1;1154287553
-254.789838;1.7639999;0.147;0.196;1;1154297842
-254.778162;1.7639999;0.098;0.196;1;1154309518
-254.767887;1.7639999;0.196;0.147;1;1154319793
-254.752236;1.813;0.147;0.147;1;1154335444
-254.732882;1.7149999;0.147;0.098;1;1154354798
-254.697625;1.813;0.098;0.196;1;1154390055
-254.667550;1.7639999;0.098;0.196;1;1154420130
-254.649136;1.813;0.098;0.147;1;1154438544
-254.627496;1.813;0.098;0.147;1;1154460184
-254.612727;1.813;0.147;0.147;1;1154474953
-254.598091;1.7639999;0.147;0.244999984;1;1154489589
-254.575428;1.7639999;0.147;0.147;1;1154512252
-254.564900;1.7639999;0.147;0.147;1;1154522780
-254.551692;1.813;0.147;0.147;1;1154535988
-254.539732;1.7149999;0.147;0.147;1;1154547948
-254.522902;1.7639999;0.147;0.147;1;1154564778
-254.506097;1.7639999;0.098;0.147;1;1154581583
-254.495091;1.7639999;0.098;0.147;1;1154592589
-254.482345;1.7639999;0.098;0.147;1;1154605335
-254.471511;1.7639999;0.098;0.196;1;1154616169
-254.456581;1.813;0.147;0.147;1;1154631099
-254.432844;1.7639999;0.098;0.147;1;1154654836
-254.412842;1.7639999;0.196;0.196;1;1154674838
-254.401836;1.7639999;0.196;0.196;1;1154685844
-254.389145;1.7639999;0.147;0.196;1;1154698535
-254.374070;1.7639999;0.147;0.147;1;1154713610
-254.357421;1.813;0.098;0.147;1;1154730259
-254.346763;1.813;0.147;0.196;1;1154740917
-254.334645;1.7149999;0.147;0.244999984;1;1154753035
-254.312835;1.7149999;0.147;0.196;1;1154774845
-254.301639;1.7639999;0.147;0.147;1;1154786041
-254.290852;1.7639999;0.147;0.196;1;1154796828
-254.279304;1.7639999;0.098;0.147;1;1154808376
-254.268979;1.813;0.147;0.196;1;1154818701
-254.254294;1.813;0.147;0.196;1;1154833386
-254.243992;1.7639999;0.147;0.098;1;1154843688
-254.210093;1.7639999;0.098;0.196;1;1154877587
-254.198072;1.7639999;0.147;0.196;1;1154889608
-254.176791;1.7639999;0.098;0.098;1;1154910889
-254.163521;1.7639999;0.147;0.147;1;1154924159
-254.151241;1.7639999;0.147;0.147;1;1154936439
-254.138950;1.7639999;0.098;0.196;1;1154948730
-254.127463;1.813;0.196;0.196;1;1154960217
-254.113964;1.7639999;0.147;0.147;1;1154973716
-254.102748;1.7639999;0.147;0.196;1;1154984932
-254.081430;1.813;0.098;0.147;1;1155006250
-254.070129;1.7639999;0.147;0.147;1;1155017551
-254.047886;1.813;0.098;0.147;1;1155039794
-254.035554;1.7639999;0.196;0.147;1;1155052126
-254.011707;1.7639999;0.147;0.147;1;1155075973
-253.978559;1.7639999;0.098;0.147;1;1155109121
-253.952986;1.813;0.098;0.196;1;1155134694
-253.920524;1.7639999;0.196;0.147;1;1155167156
-253.909440;1.7639999;0.196;0.196;1;1155178240
-253.892160;1.7639999;0.147;0.147;1;1155195520
-253.879321;1.7639999;0.147;0.147;1;1155208359
-253.866208;1.7639999;0.147;0.147;1;1155221472
-253.852120;1.813;0.098;0.196;1;1155235560
-253.840877;1.813;0.098;0.196;1;1155246803
-253.829038;1.7639999;0.098;0.147;1;1155258642
-253.811688;1.813;0.098;0.147;1;1155275992
-253.792079;1.7149999;0.147;0.147;1;1155295601
-253.759453;1.7639999;0.147;0.147;1;1155328227
-253.719611;1.7639999;0.147;0.147;1;1155368069
-253.701756;1.813;0.098;0.196;1;1155385924
-253.690016;1.813;0.049;0.196;1;1155397664
-253.679687;1.7639999;0.098;0.147;1;1155407993
-253.667875;1.7639999;0.098;0.196;1;1155419805
-253.651731;1.7639999;0.147;0.196;1;1155435949
-253.635746;1.7639999;0.147;0.147;1;1155451934
-253.620598;1.7639999;0.147;0.196;1;1155467082
-253.609138;1.7639999;0.147;0.098;1;1155478542
-253.583449;1.7639999;0.147;0.196;1;1155504231
-253.571206;1.7149999;0.098;0.147;1;1155516474
-253.548262;1.813;0.147;0.147;1;1155539418
-253.511722;1.7639999;0.098;0.196;1;1155575958
-253.498396;1.7639999;0.147;0.244999984;1;1155589284
-253.485425;1.7639999;0.098;0.196;1;1155602255
-253.474257;1.813;0.147;0.196;1;1155613423
-253.463020;1.7149999;0.098;0.147;1;1155624660
-253.450296;1.7639999;0.196;0.147;1;1155637384
-253.437974;1.7639999;0.147;0.147;1;1155649706
-253.411376;1.7639999;0.147;0.196;1;1155676304
-253.399968;1.813;0.098;0.147;1;1155687712
-253.388141;1.7639999;0.147;0.098;1;1155699539
-253.371095;1.7639999;0.098;0.147;1;1155716585
-253.334709;1.7639999;0.098;0.196;1;1155752971
-253.322769;1.7639999;0.098;0.147;1;1155764911
-253.308432;1.7639999;0.098;0.147;1;1155779248
-253.289999;1.813;0.196;0.147;1;1155797681
-253.278400;1.7639999;0.196;0.147;1;1155809280
-253.258113;1.7639999;0.147;0.147;1;1155829567
-253.247738;1.7149999;0.098;0.196;1;1155839942
-253.227417;1.666;0.147;0.147;1;1155860263
-253.216335;1.7639999;0.098;0.196;1;1155871345
-253.171626;1.7639999;0.098;0.244999984;1;1155916054
-253.150990;1.7639999;0.147;0.147;1;1155936690
-253.134025;1.813;0.147;0.147;1;1155953655
-253.122430;1.7639999;0.147;0.196;1;1155965250
-253.101911;1.7149999;0.147;0.147;1;1155985769
-253.081645;1.7639999;0.147;0.196;1;1156006035
-253.070394;1.813;0.098;0.147;1;1156017286
-253.051646;1.7149999;0.098;0.196;1;1156036034
-253.039708;1.813;0.147;0.196;1;1156047972
-253.006612;1.7639999;0.147;0.147;1;1156081068
-252.982523;1.7639999;0.098;0.196;1;1156105157
-252.971100;1.7639999;0.147;0.147;1;1156116580
-252.948575;1.813;0.147;0.244999984;1;1156139105
-252.911526;1.7639999;0.147;0.147;1;1156176154
-252.852966;1.7639999;0.147;0.196;1;1156234714
-252.839725;1.7149999;0.098;0.147;1;1156247955
-252.828577;1.813;0.098;0.196;1;1156259103
-252.811166;1.813;0.098;0.147;1;1156276514
-252.799942;1.7639999;0.098;0.147;1;1156287738
-252.787157;1.7639999;0.098;0.196;1;1156300523
-252.770356;1.7639999;0.147;0.196;1;1156317324
-252.747372;1.7149999;0.147;0.196;1;1156340308
-252.736908;1.7639999;0.098;0.244999984;1;1156350772
-252.717823;1.7639999;0.147;0.147;1;1156369857
-252.700007;1.7639999;0.049;0.196;1;1156387673
-252.682129;1.7149999;0.147;0.196;1;1156405551
-252.671851;1.7639999;0.147;0.147;1;1156415829
-252.648369;1.7149999;0.098;0.147;1;1156439311
-252.633438;1.7639999;0.147;0.196;1;1156454242
-252.610897;1.7639999;0.098;0.147;1;1156476783
-252.591572;1.7639999;0.147;0.196;1;1156496108
-252.576920;1.7149999;0.098;0.196;1;1156510760
-252.565750;1.7639999;0.147;0.147;1;1156521930
-252.550932;1.7149999;0.147;0.196;1;1156536748
-252.539820;1.7149999;0.147;0.147;1;1156547860
-252.528679;1.813;0.147;0.196;1;1156559001
-252.514211;1.7639999;0.147;0.147;1;1156573469
-252.503482;1.7639999;0.147;0.196;1;1156584198
-252.479475;1.7639999;0.098;0.147;1;1156608205
-252.468066;1.7639999;0.147;0.196;1;1156619614
-252.454309;1.7639999;0.147;0.147;1;1156633371
-252.443676;1.813;0.147;0.196;1;1156644004
-252.427611;1.7639999;0.196;0.196;1;1156660069
-252.399724;1.7639999;0.147;0.196;1;1156687956
-252.379626;1.813;0.098;0.098;1;1156708054
-252.358306;1.7639999;0.147;0.147;1;1156729374
-252.347894;1.7639999;0.098;0.196;1;1156739786
-252.316932;1.813;0.098;0.196;1;1156770748
-252.302908;1.813;0.098;0.244999984;1;1156784772
-252.291002;1.7639999;0.147;0.147;1;1156796678
-252.277297;1.7639999;0.098;0.196;1;1156810383
-252.266370;1.7639999;0.098;0.196;1;1156821310
-252.250391;1.813;0.147;0.098;1;1156837289
-252.239271;1.7639999;0.147;0.196;1;1156848409
-252.221694;1.7639999;0.049;0.196;1;1156865986
-252.208481;1.7639999;0.147;0.196;1;1156879199
-252.197484;1.7639999;0.098;0.147;1;1156890196
-252.182678;1.813;0.098;0.244999984;1;1156905002
-252.159760;1.7639999;0.147;0.196;1;1156927920
-252.142585;1.7149999;0.147;0.147;1;1156945095
-252.117417;1.7149999;0.098;0.196;1;1156970263
-252.103573;1.7639999;0.147;0.147;1;1156984107
-252.080079;1.7149999;0.147;0.196;1;1157007601
-252.069749;1.7639999;0.147;0.244999984;1;1157017931
-252.054887;1.7639999;0.147;0.147;1;1157032793
-252.043842;1.7639999;0.147;0.244999984;1;1157043838
-252.031253;1.7639999;0.098;0.196;1;1157056427
-252.020964;1.7639999;0.147;0.196;1;1157066716
-252.009795;1.7639999;0.098;0.147;1;1157077885
-251.996907;1.7639999;0.147;0.196;1;1157090773
-251.953194;1.813;0.147;0.196;1;1157134486
-251.929704;1.813;0.147;0.196;1;1157157976
-251.918785;1.813;0.098;0.098;1;1157168895
-251.907243;1.7639999;0.098;0.244999984;1;1157180437
-251.891756;1.7639999;0.098;0.196;1;1157195924
-251.880010;1.7639999;0.098;0.147;1;1157207670
-251.858140;1.813;0.147;0.147;1;1157229540
-251.847808;1.7639999;0.147;0.147;1;1157239872
-251.827703;1.7639999;0.147;0.244999984;1;1157259977
-251.816107;1.813;0.098;0.196;1;1157271573
-251.804141;1.7149999;0.147;0.147;1;1157283539
-251.790075;1.7639999;0.147;0.196;1;1157297605
-251.778259;1.7639999;0.098;0.196;1;1157309421
-251.767614;1.7639999;0.098;0.147;1;1157320066
-251.752649;1.7639999;0.147;0.147;1;1157335031
-251.731578;1.813;0.098;0.147;1;1157356102
-251.717904;1.7639999;0.147;0.196;1;1157369776
-251.684423;1.813;0.098;0.147;1;1157403257
-251.671419;1.7639999;0.147;0.147;1;1157416261
-251.648171;1.7639999;0.147;0.196;1;1157439509
-251.637495;1.7639999;0.147;0.196;1;1157450185
-251.623060;1.7639999;0.147;0.147;1;1157464620
-251.611803;1.813;0.147;0.147;1;1157475877
-251.600982;1.7639999;0.196;0.196;1;1157486698
-251.581267;1.7639999;0.147;0.147;1;1157506413
-251.570457;1.7639999;0.196;0.147;1;1157517223
-251.546256;1.7639999;0.098;0.196;1;1157541424
-251.535613;1.7149999;0.147;0.196;1;1157552067
-251.522784;1.7149999;0.147;0.196;1;1157564896
-251.468475;1.7149999;0.147;0.147;1;1157619205
-251.456949;1.7639999;0.098;0.196;1;1157630731
-251.442481;1.7639999;0.147;0.147;1;1157645199
-251.422923;1.7639999;0.098;0.196;1;1157664757
-251.409830;1.813;0.098;0.147;1;1157677850
-251.392423;1.7639999;0.098;0.147;1;1157695257
-251.381860;1.7639999;0.147;0.196;1;1157705820
-251.370808;1.813;0.098;0.147;1;1157716872
-251.356573;1.7639999;0.147;0.196;1;1157731107
-251.338498;1.7639999;0.147;0.147;1;1157749182
-251.328016;1.7639999;0.196;0.147;1;1157759664
-251.307738;1.7639999;0.196;0.196;1;1157779942
-251.295986;1.7639999;0.147;0.196;1;1157791694
-251.282946;1.7639999;0.147;0.196;1;1157804734
-251.271035;1.7639999;0.147;0.147;1;1157816645
-251.255075;1.7639999;0.098;0.147;1;1157832605
-251.243863;1.7639999;0.098;0.147;1;1157843817
-251.232906;1.813;0.147;0.196;1;1157854774
-251.221835;1.7639999;0.147;0.147;1;1157865845
-251.202679;1.7639999;0.147;0.196;1;1157885001
-251.189879;1.7639999;0.147;0.147;1;1157897801
-251.178539;1.813;0.098;0.196;1;1157909141
-251.167105;1.7639999;0.147;0.196;1;1157920575
-251.152542;1.813;0.147;0.147;1;1157935138
-251.141869;1.7639999;0.147;0.196;1;1157945811
-251.130382;1.7639999;0.147;0.196;1;1157957298
-251.117994;1.7639999;0.147;0.196;1;1157969686
-251.101921;1.813;0.098;0.147;1;1157985759
-251.060560;1.7639999;0.049;0.244999984;1;1158027120
-251.046198;1.7639999;0.098;0.196;1;1158041482
-251.011384;1.7639999;0.098;0.196;1;1158076296
-250.991600;1.7639999;0.147;0.147;1;1158096080
-250.979378;1.813;0.098;0.098;1;1158108302
-250.959948;1.7639999;0.147;0.147;1;1158127732
-250.945613;1.7639999;0.147;0.196;1;1158142067
-250.930268;1.7149999;0.147;0.196;1;1158157412
-250.919737;1.7639999;0.098;0.196;1;1158167943
-250.897735;1.7639999;0.098;0.147;1;1158189945
-250.873408;1.7639999;0.147;0.196;1;1158214272
-250.862909;1.7639999;0.147;0.196;1;1158224771
-250.843292;1.7639999;0.196;0.147;1;1158244388
-250.833040;1.666;0.196;0.196;1;1158254640
-250.821468;1.7639999;0.147;0.196;1;1158266212
-250.800277;1.7639999;0.147;0.147;1;1158287403
-250.789121;1.7639999;0.196;0.147;1;1158298559
-250.771642;1.7639999;0.147;0.196;1;1158316038
-250.746546;1.813;0.098;0.244999984;1;1158341134
-250.734679;1.7149999;0.098;0.196;1;1158353001
-250.717239;1.7639999;0.098;0.196;1;1158370441
-250.705912;1.7639999;0.147;0.196;1;1158381768
-250.681714;1.7149999;0.147;0.098;1;1158405966
-250.668432;1.7639999;0.147;0.098;1;1158419248
-250.657841;1.7639999;0.147;0.147;1;1158429839
-250.641354;1.813;0.147;0.196;1;1158446326
-250.610221;1.813;0.098;0.147;1;1158477459
-250.598902;1.7149999;0.147;0.196;1;1158488778
-250.586816;1.7639999;0.098;0.196;1;1158500864
-250.572333;1.7639999;0.098;0.147;1;1158515347
-250.558252;1.7639999;0.098;0.196;1;1158529428
-250.546771;1.7639999;0.147;0.147;1;1158540909
-250.535358;1.7639999;0.147;0.196;1;1158552322
-250.507929;1.862;0.147;0.196;1;1158579751
-250.479722;1.7149999;0.098;0.196;1;1158607958
-250.468959;1.7639999;0.147;0.147;1;1158618721
-250.454345;1.7639999;0.147;0.147;1;1158633335
-250.440221;1.7639999;0.147;0.147;1;1158647459
-250.422848;1.7149999;0.147;0.196;1;1158664832
-250.410579;1.7639999;0.147;0.196;1;1158677101
-250.392268;1.7639999;0.098;0.244999984;1;1158695412
-250.381641;1.7639999;0.049;0.147;1;1158706039
-250.370705;1.7149999;0.147;0.098;1;1158716975
-250.354242;1.813;0.147;0.098;1;1158733438
-250.337174;1.813;0.098;0.147;1;1158750506
-250.326729;1.7639999;0.147;0.196;1;1158760951
-250.315433;1.813;0.196;0.196;1;1158772247
-250.300235;1.7149999;0.098;0.244999984;1;1158787445
-250.278383;1.813;0.098;0.196;1;1158809297
-250.264495;1.7639999;0.098;0.196;1;1158823185
-250.252942;1.7639999;0.098;0.196;1;1158834738
-250.241860;1.7639999;0.098;0.196;1;1158845820
-250.217625;1.813;0.098;0.196;1;1158870055
-250.203266;1.7639999;0.098;0.196;1;1158884414
-250.163253;1.7149999;0.147;0.147;1;1158924427
-250.151156;1.7639999;0.147;0.196;1;1158936524
-250.135646;1.7149999;0.147;0.196;1;1158952034
-250.111903;1.7149999;0.147;0.147;1;1158975777
-250.100871;1.7149999;0.147;0.196;1;1158986809
-250.078716;1.7639999;0.147;0.147;1;1159008964
-250.063782;1.813;0.098;0.147;1;1159023898
-250.052758;1.862;0.098;0.196;1;1159034922
-250.040231;1.7639999;0.147;0.098;1;1159047449
-250.029953;1.813;0.147;0.196;1;1159057727
-250.018952;1.7639999;0.147;0.244999984;1;1159068728
-250.006049;1.7149999;0.196;0.196;1;1159081631
-249.980823;1.7639999;0.147;0.196;1;1159106857
-249.969496;1.7639999;0.147;0.196;1;1159118184
-249.958169;1.7149999;0.196;0.196;1;1159129511
-249.944246;1.7639999;0.098;0.244999984;1;1159143434
-249.930336;1.7639999;0.049;0.196;1;1159157344
-249.919935;1.7639999;0.147;0.196;1;1159167745
-249.906128;1.7639999;0.098;0.147;1;1159181552
-249.886208;1.7639999;0.147;0.196;1;1159201472
-249.875059;1.7149999;0.098;0.147;1;1159212621
-249.863842;1.7149999;0.147;0.196;1;1159223838
-249.850162;1.7639999;0.196;0.196;1;1159237518
-249.839735;1.7639999;0.147;0.196;1;1159247945
-249.828563;1.7639999;0.147;0.098;1;1159259117
-249.815977;1.7149999;0.147;0.147;1;1159271703
-249.801984;1.7639999;0.196;0.244999984;1;1159285696
-249.767681;1.7639999;0.098;0.196;1;1159319999
-249.745854;1.7639999;0.196;0.147;1;1159341826
-249.727577;1.813;0.049;0.196;1;1159360103
-249.710458;1.7639999;0.147;0.196;1;1159377222
-249.696190;1.813;0.147;0.147;1;1159391490
-249.682993;1.7149999;0.196;0.244999984;1;1159404687
-249.671671;1.7639999;0.147;0.244999984;1;1159416009
-249.657002;1.7639999;0.147;0.147;1;1159430678
-249.645488;1.813;0.098;0.244999984;1;1159442192
-249.633831;1.813;0.098;0.147;1;1159453849
-249.611639;1.813;0.098;0.147;1;1159476041
-249.590801;1.813;0.098;0.147;1;1159496879
-249.576494;1.7639999;0.147;0.147;1;1159511186
-249.548651;1.7639999;0.147;0.147;1;1159539029
-249.512895;1.7639999;0.196;0.196;1;1159574785
-249.501217;1.7149999;0.147;0.244999984;1;1159586463
-249.490815;1.7639999;0.147;0.196;1;1159596865
-249.476790;1.813;0.098;0.196;1;1159610890
-249.465689;1.7639999;0.098;0.196;1;1159621991
-249.453333;1.7639999;0.098;0.196;1;1159634347
-249.442564;1.7149999;0.147;0.196;1;1159645116
-249.431689;1.813;0.098;0.196;1;1159655991
-249.412902;1.7639999;0.098;0.147;1;1159674778
-249.392810;1.813;0.098;0.147;1;1159694870
-249.378746;1.7639999;0.098;0.196;1;1159708934
-249.367793;1.7639999;0.147;0.196;1;1159719887
-249.351165;1.813;0.147;0.196;1;1159736515
-249.337956;1.7639999;0.147;0.244999984;1;1159749724
-249.306201;1.7149999;0.147;0.147;1;1159781479
-249.291257;1.7639999;0.147;0.196;1;1159796423
-249.280593;1.7639999;0.147;0.147;1;1159807087
-249.261917;1.813;0.098;0.147;1;1159825763
-249.250343;1.7149999;0.147;0.147;1;1159837337
-249.236350;1.7639999;0.147;0.147;1;1159851330
-249.220773;1.813;0.098;0.147;1;1159866907
-249.201140;1.7639999;0.196;0.196;1;1159886540
-249.179976;1.813;0.147;0.147;1;1159907704
-249.165780;1.813;0.147;0.147;1;1159921900
-249.148322;1.7639999;0.098;0.196;1;1159939358
-249.137926;1.7639999;0.147;0.147;1;1159949754
-249.124705;1.813;0.147;0.196;1;1159962975
-249.112420;1.7149999;0.147;0.147;1;1159975260
-249.101773;1.7639999;0.098;0.147;1;1159985907
-249.090857;1.7639999;0.147;0.147;1;1159996823
-249.077655;1.7639999;0.098;0.196;1;1160010025
-249.066726;1.7639999;0.147;0.196;1;1160020954
-249.051541;1.7639999;0.098;0.147;1;1160036139
-249.040941;1.813;0.147;0.196;1;1160046739
-249.029121;1.813;0.147;0.244999984;1;1160058559
-249.008356;1.7639999;0.147;0.196;1;1160079324
-248.981103;1.7639999;0.098;0.196;1;1160106577
-248.969831;1.7639999;0.147;0.147;1;1160117849
-248.955200;1.7639999;0.196;0.147;1;1160132480
-248.941114;1.7639999;0.147;0.196;1;1160146566
-248.930530;1.7639999;0.147;0.196;1;1160157150
-248.912921;1.7639999;0.196;0.196;1;1160174759
-248.870847;1.7639999;0.098;0.147;1;1160216833
-248.847218;1.7639999;0.098;0.147;1;1160240462
-248.834418;1.7639999;0.147;0.196;1;1160253262
-248.812447;1.7639999;0.147;0.147;1;1160275233
-248.792828;1.7149999;0.098;0.147;1;1160294852
-248.780960;1.813;0.098;0.196;1;1160306720
-248.769586;1.7149999;0.098;0.147;1;1160318094
-248.755718;1.7149999;0.147;0.196;1;1160331962
-248.744524;1.813;0.147;0.244999984;1;1160343156
-248.732294;1.7639999;0.098;0.196;1;1160355386
-248.721274;1.813;0.147;0.196;1;1160366406
-248.710879;1.813;0.196;0.196;1;1160376801
-248.698950;1.7639999;0.147;0.196;1;1160388730
-248.685138;1.7639999;0.147;0.147;1;1160402542
-248.674686;1.7639999;0.147;0.196;1;1160412994
-248.642872;1.7639999;0.098;0.147;1;1160444808
-248.631475;1.7639999;0.098;0.147;1;1160456205
-248.611313;1.862;0.147;0.147;1;1160476367
-248.592785;1.7149999;0.147;0.196;1;1160494895
-248.581267;1.7149999;0.147;0.196;1;1160506413
-248.570879;1.7639999;0.196;0.196;1;1160516801
-248.555510;1.7149999;0.147;0.196;1;1160532170
-248.520333;1.7639999;0.147;0.147;1;1160567347
-248.502901;1.813;0.098;0.147;1;1160584779
-248.489536;1.813;0.098;0.147;1;1160598144
-248.476620;1.813;0.147;0.147;1;1160611060
-248.465834;1.666;0.147;0.147;1;1160621846
-248.452893;1.7639999;0.147;0.196;1;1160634787
-248.432896;1.7639999;0.098;0.196;1;1160654784
-248.396784;1.7149999;0.147;0.147;1;1160690896
-248.382632;1.813;0.147;0.147;1;1160705048
-248.371163;1.7639999;0.147;0.147;1;1160716517
-248.356745;1.7639999;0.147;0.147;1;1160730935
-248.341212;1.7149999;0.196;0.196;1;1160746468
-248.330383;1.813;0.098;0.196;1;1160757297
-248.312881;1.7639999;0.098;0.196;1;1160774799
-248.292770;1.7639999;0.098;0.147;1;1160794910
-248.278059;1.813;0.147;0.196;1;1160809621
-248.266891;1.813;0.098;0.196;1;1160820789
-248.251536;1.813;0.098;0.196;1;1160836144
-248.232922;1.7639999;0.147;0.196;1;1160854758
-248.220953;1.7639999;0.147;0.196;1;1160866727
-248.202909;1.7639999;0.147;0.147;1;1160884771
-248.191898;1.7639999;0.098;0.196;1;1160895782
-248.179462;1.7639999;0.147;0.147;1;1160908218
-248.168869;1.7639999;0.147;0.147;1;1160918811
-248.157905;1.7639999;0.147;0.147;1;1160929775
-248.141797;1.7639999;0.147;0.147;1;1160945883
-248.130254;1.813;0.147;0.196;1;1160957426
-248.117321;1.7639999;0.098;0.196;1;1160970359
-248.106905;1.7639999;0.098;0.196;1;1160980775
-248.093567;1.7639999;0.147;0.147;1;1160994113
-248.080794;1.813;0.098;0.244999984;1;1161006886
-248.069223;1.813;0.147;0.147;1;1161018457
-248.044891;1.7149999;0.147;0.196;1;1161042789
-248.021833;1.7149999;0.196;0.196;1;1161065847
-248.001557;1.7149999;0.147;0.196;1;1161086123
-247.988628;1.7149999;0.147;0.147;1;1161099052
-247.945062;1.7639999;0.147;0.196;1;1161142618
-247.931199;1.813;0.147;0.147;1;1161156481
-247.919265;1.7639999;0.147;0.196;1;1161168415
-247.908348;1.7639999;0.098;0.196;1;1161179332
-247.897687;1.813;0.147;0.147;1;1161189993
-247.880947;1.7149999;0.147;0.147;1;1161206733
-247.869976;1.813;0.147;0.147;1;1161217704
-247.847882;1.7639999;0.147;0.196;1;1161239798
-247.834258;1.7639999;0.147;0.244999984;1;1161253422
-247.811559;1.7639999;0.147;0.147;1;1161276121
-247.791494;1.7149999;0.147;0.147;1;1161296186
-247.778511;1.813;0.098;0.147;1;1161309169
-247.765815;1.7639999;0.147;0.196;1;1161321865
-247.751672;1.7639999;0.147;0.196;1;1161336008
-247.738995;1.813;0.098;0.196;1;1161348685
-247.727723;1.7639999;0.147;0.196;1;1161359957
-247.711685;1.7639999;0.098;0.196;1;1161375995
-247.689803;1.813;0.049;0.196;1;1161397877
-247.678202;1.7639999;0.098;0.147;1;1161409478
-247.667792;1.7639999;0.098;0.147;1;1161419888
-247.652046;1.7639999;0.147;0.196;1;1161435634
-247.639114;1.813;0.049;0.147;1;1161448566
-247.628721;1.813;0.098;0.147;1;1161458959
-247.611330;1.7639999;0.147;0.147;1;1161476350
-247.591992;1.7149999;0.147;0.147;1;1161495688
-247.578776;1.7639999;0.147;0.196;1;1161508904
-247.567035;1.7149999;0.147;0.196;1;1161520645
-247.552259;1.7639999;0.098;0.196;1;1161535421
-247.538602;1.7639999;0.147;0.196;1;1161549078
-247.502961;1.7639999;0.098;0.098;1;1161584719
-247.477489;1.7639999;0.147;0.196;1;1161610191
-247.462577;1.7149999;0.098;0.196;1;1161625103
-247.451479;1.813;0.147;0.196;1;1161636201
-247.440786;1.7639999;0.147;0.147;1;1161646894
-247.428917;1.7639999;0.196;0.196;1;1161658763
-247.417815;1.7639999;0.147;0.196;1;1161669865
-247.401634;1.7639999;0.147;0.196;1;1161686046
-247.388329;1.7639999;0.196;0.196;1;1161699351
-247.374688;1.813;0.098;0.244999984;1;1161712992
-247.363853;1.862;0.147;0.196;1;1161723827
-247.349925;1.7639999;0.147;0.196;1;1161737755
-247.336545;1.7149999;0.147;0.147;1;1161751135
-247.323044;1.813;0.147;0.147;1;1161764636
-247.301864;1.813;0.147;0.196;1;1161785816
-247.290653;1.7639999;0.147;0.196;1;1161797027
-247.278190;1.7639999;0.147;0.196;1;1161809490
-247.263881;1.7149999;0.147;0.147;1;1161823799
-247.251876;1.7639999;0.147;0.098;1;1161835804
-247.240788;1.7639999;0.147;0.196;1;1161846892
-247.218297;1.7639999;0.098;0.147;1;1161869383
-247.207832;1.7639999;0.147;0.196;1;1161879848
-247.195582;1.813;0.147;0.196;1;1161892098
-247.181600;1.7149999;0.147;0.147;1;1161906080
-247.169099;1.7149999;0.147;0.147;1;1161918581
-247.157591;1.7639999;0.147;0.147;1;1161930089
-247.146602;1.7639999;0.147;0.147;1;1161941078
-247.130851;1.813;0.098;0.147;1;1161956829
-247.118019;1.7639999;0.098;0.196;1;1161969661
-247.080695;1.7639999;0.147;0.196;1;1162006985
-247.059692;1.7639999;0.147;0.147;1;1162027988
-247.046435;1.7639999;0.147;0.147;1;1162041245
-247.031514;1.813;0.098;0.196;1;1162056166
-247.011600;1.7639999;0.147;0.098;1;1162076080
-246.998330;1.7639999;0.147;0.244999984;1;1162089350
-246.987149;1.7639999;0.098;0.147;1;1162100531
-246.976478;1.7639999;0.098;0.196;1;1162111202
-246.965174;1.7639999;0.147;0.147;1;1162122506
-246.952957;1.666;0.196;0.196;1;1162134723
-246.940845;1.813;0.098;0.147;1;1162146835
-246.929312;1.7639999;0.147;0.196;1;1162158368
-246.918558;1.7149999;0.147;0.196;1;1162169122
-246.905631;1.7149999;0.147;0.147;1;1162182049
-246.886595;1.7639999;0.147;0.147;1;1162201085
-246.875804;1.813;0.098;0.147;1;1162211876
-246.864272;1.813;0.098;0.147;1;1162223408
-246.840633;1.7149999;0.147;0.147;1;1162247047
-246.822890;1.7639999;0.098;0.147;1;1162264790
-246.811938;1.7639999;0.098;0.147;1;1162275742
-246.800642;1.813;0.098;0.147;1;1162287038
-246.784720;1.7639999;0.147;0.196;1;1162302960
-246.773661;1.813;0.147;0.196;1;1162314019
-246.761957;1.7639999;0.147;0.147;1;1162325723
-246.750311;1.7149999;0.147;0.196;1;1162337369
-246.739246;1.7639999;0.147;0.196;1;1162348434
-246.722542;1.7639999;0.098;0.196;1;1162365138
-246.706711;1.813;0.098;0.196;1;1162380969
-246.692111;1.7639999;0.147;0.196;1;1162395569
-246.680710;1.813;0.098;0.196;1;1162406970
-246.666850;1.813;0.147;0.244999984;1;1162420830
-246.630044;1.7639999;0.098;0.196;1;1162457636
-246.616924;1.7639999;0.098;0.147;1;1162470756
-246.605132;1.813;0.098;0.196;1;1162482548
-246.586227;1.7639999;0.147;0.196;1;1162501453
-246.572794;1.7639999;0.147;0.196;1;1162514886
-246.561336;1.7149999;0.147;0.196;1;1162526344
-246.547464;1.7639999;0.098;0.147;1;1162540216
-246.536352;1.7639999;0.098;0.147;1;1162551328
-246.523884;1.813;0.098;0.196;1;1162563796
-246.509464;1.7639999;0.098;0.196;1;1162578216
-246.498486;1.7639999;0.147;0.196;1;1162589194
-246.485613;1.7639999;0.098;0.196;1;1162602067
-246.474620;1.7639999;0.147;0.147;1;1162613060
-246.451623;1.7639999;0.098;0.147;1;1162636057
-246.438576;1.7639999;0.147;0.098;1;1162649104
-246.417395;1.813;0.049;0.244999984;1;1162670285
-246.405577;1.7639999;0.098;0.196;1;1162682103
-246.381702;1.7639999;0.098;0.147;1;1162705978
-246.370033;1.7639999;0.147;0.196;1;1162717647
-246.343539;1.813;0.147;0.196;1;1162744141
-246.330887;1.7639999;0.147;0.196;1;1162756793
-246.319601;1.7149999;0.147;0.196;1;1162768079
-246.306173;1.813;0.098;0.147;1;1162781507
-246.281111;1.7639999;0.147;0.196;1;1162806569
-246.269358;1.7639999;0.098;0.147;1;1162818322
-246.241462;1.7639999;0.098;0.147;1;1162846218
-246.199850;1.7639999;0.147;0.147;1;1162887830
-246.183665;1.813;0.098;0.196;1;1162904015
-246.163231;1.7639999;0.147;0.147;1;1162924449
-246.150969;1.7639999;0.147;0.196;1;1162936711
-246.139276;1.7639999;0.098;0.196;1;1162948404
-246.111188;1.813;0.098;0.196;1;1162976492
-246.100853;1.7639999;0.196;0.147;1;1162986827
-246.076861;1.7639999;0.049;0.147;1;1163010819
-246.050025;1.7639999;0.147;0.147;1;1163037655
-246.038897;1.813;0.098;0.196;1;1163048783
-246.021749;1.7149999;0.147;0.196;1;1163065931
-246.010478;1.7639999;0.147;0.147;1;1163077202
-245.991793;1.813;0.147;0.196;1;1163095887
-245.979918;1.813;0.098;0.147;1;1163107762
-245.968476;1.7639999;0.147;0.196;1;1163119204
-245.941567;1.7639999;0.147;0.147;1;1163146113
-245.930492;1.7639999;0.147;0.147;1;1163157188
-245.918750;1.7639999;0.147;0.147;1;1163168930
-245.905758;1.7639999;0.147;0.196;1;1163181922
-245.877153;1.7149999;0.147;0.196;1;1163210527
-245.865196;1.813;0.098;0.147;1;1163222484
-245.851665;1.7639999;0.098;0.196;1;1163236015
-245.818158;1.7639999;0.098;0.147;1;1163269522
-245.807884;1.7639999;0.147;0.196;1;1163279796
-245.774620;1.7639999;0.147;0.147;1;1163313060
-245.739226;1.7639999;0.098;0.196;1;1163348454
-245.727841;1.813;0.098;0.147;1;1163359839
-245.711301;1.7639999;0.098;0.196;1;1163376379
-245.700054;1.7639999;0.147;0.196;1;1163387626
-245.688211;1.813;0.098;0.147;1;1163399469
-245.676968;1.7149999;0.147;0.147;0;1163410712
-245.652000;1.813;0.049;0.098;1;1163435680
-245.639312;1.7149999;0.147;0.196;1;1163448368
-245.628903;1.7639999;0.147;0.147;1;1163458777
-245.611807;1.813;0.098;0.196;1;1163475873
-245.600433;1.813;0.147;0.196;1;1163487247
-245.589477;1.7639999;0.098;0.147;1;1163498203
-245.576615;1.7149999;0.147;0.098;1;1163511065
-245.548417;1.7639999;0.147;0.147;1;1163539263
-245.532564;1.813;0.049;0.147;1;1163555116
-245.512897;1.7149999;0.196;0.196;1;1163574783
-245.501920;1.7639999;0.147;0.147;1;1163585760
-245.490868;1.7149999;0.098;0.244999984;1;1163596812
-245.479649;1.7639999;0.098;0.147;1;1163608031
-245.468994;1.7639999;0.147;0.147;1;1163618686
-245.453381;1.7639999;0.147;0.196;1;1163634299
-245.442022;1.813;0.147;0.147;1;1163645658
-245.428651;1.7639999;0.196;0.196;1;1163659029
-245.407979;1.7639999;0.098;0.196;1;1163679701
-245.381134;1.7639999;0.147;0.147;1;1163706546
-245.370183;1.813;0.147;0.196;1;1163717497
-245.355475;1.7639999;0.147;0.196;1;1163732205
-245.344955;1.813;0.147;0.196;1;1163742725
-245.296180;1.7149999;0.147;0.147;1;1163791500
-245.281895;1.7639999;0.098;0.147;1;1163805785
-245.270923;1.7149999;0.098;0.244999984;1;1163816757
-245.256153;1.7149999;0.147;0.196;1;1163831527
-245.241933;1.7639999;0.098;0.244999984;1;1163845747
-245.213514;1.7639999;0.147;0.147;1;1163874166
-245.198211;1.7639999;0.147;0.147;1;1163889469
-245.183054;1.7639999;0.147;0.147;1;1163904626
-245.171134;1.813;0.098;0.196;1;1163916546
-245.148174;1.7639999;0.098;0.196;1;1163939506
-245.134367;1.7639999;0.147;0.147;1;1163953313
-245.123506;1.7639999;0.098;0.196;1;1163964174
-245.109552;1.7639999;0.147;0.147;1;1163978128
-245.089085;1.813;0.098;0.147;1;1163998595
-245.075465;1.7149999;0.098;0.244999984;1;1164012215
-245.056397;1.813;0.098;0.196;1;1164031283
-245.034058;1.7639999;0.098;0.147;1;1164053622
-245.023817;1.7639999;0.147;0.147;1;1164063863
-245.002904;1.7639999;0.196;0.147;1;1164084776
-244.991851;1.813;0.147;0.196;1;1164095829
-244.979321;1.7639999;0.098;0.147;1;1164108359
-244.963316;1.7639999;0.147;0.147;1;1164124364
-244.941776;1.7639999;0.196;0.196;1;1164145904
-244.921180;1.7149999;0.098;0.147;1;1164166500
-244.901888;1.7639999;0.098;0.196;1;1164185792
-244.890701;1.7639999;0.147;0.196;1;1164196979
-244.858398;1.813;0.147;0.098;1;1164229282
-244.840766;1.7639999;0.147;0.147;1;1164246914
-244.827897;1.813;0.147;0.147;1;1164259783
-244.816656;1.7639999;0.147;0.196;1;1164271024
-244.801738;1.7639999;0.147;0.196;1;1164285942
-244.789570;1.7639999;0.098;0.244999984;1;1164298110
-244.777808;1.7639999;0.147;0.196;1;1164309872
-244.741343;1.7639999;0.098;0.196;1;1164346337
-244.730420;1.7639999;0.098;0.147;1;1164357260
-244.717453;1.7639999;0.147;0.147;1;1164370227
-244.701976;1.7639999;0.196;0.196;1;1164385704
-244.681208;1.7149999;0.098;0.147;1;1164406472
-244.668685;1.7639999;0.147;0.196;1;1164418995
-244.654718;1.813;0.098;0.196;1;1164432962
-244.639123;1.7639999;0.147;0.196;1;1164448557
-244.628598;1.7639999;0.147;0.244999984;1;1164459082
-244.592772;1.7639999;0.098;0.196;1;1164494908
-244.579721;1.7639999;0.147;0.196;1;1164507959
-244.568549;1.7639999;0.098;0.147;1;1164519131
-244.555335;1.7639999;0.147;0.196;1;1164532345
-244.541834;1.7639999;0.098;0.147;1;1164545846
-244.530759;1.7639999;0.147;0.147;1;1164556921
-244.519076;1.7639999;0.196;0.196;1;1164568604
-244.506130;1.7639999;0.147;0.147;1;1164581550
-244.495708;1.7639999;0.147;0.196;1;1164591972
-244.483031;1.813;0.098;0.196;1;1164604649
-244.469579;1.813;0.098;0.244999984;1;1164618101
-244.432620;1.7149999;0.196;0.196;1;1164655060
-244.417363;1.7149999;0.147;0.196;1;1164670317
-244.405539;1.7639999;0.147;0.196;1;1164682141
-244.381519;1.7639999;0.147;0.196;1;1164706161
-244.370507;1.7639999;0.147;0.196;1;1164717173
-244.356641;1.7149999;0.196;0.098;1;1164731039
-244.344376;1.813;0.147;0.196;1;1164743304
-244.321693;1.7639999;0.098;0.196;1;1164765987
-244.309203;1.813;0.098;0.196;1;1164778477
-244.291710;1.7639999;0.098;0.244999984;1;1164795970
-244.277996;1.7639999;0.098;0.244999984;1;1164809684
-244.259616;1.7639999;0.147;0.196;1;1164828064
-244.246245;1.7639999;0.098;0.147;1;1164841435
-244.225841;1.7639999;0.147;0.147;1;1164861839
-244.211617;1.7639999;0.147;0.098;1;1164876063
-244.199592;1.7639999;0.196;0.196;1;1164888088
-244.188497;1.813;0.147;0.196;1;1164899183
-244.176282;1.7639999;0.147;0.147;1;1164911398
-244.165391;1.7639999;0.147;0.196;1;1164922289
-244.149190;1.813;0.098;0.196;1;1164938490
-244.136164;1.7149999;0.147;0.196;1;1164951516
-244.107235;1.7149999;0.049;0.196;1;1164980445
-244.096261;1.813;0.147;0.196;1;1164991419
-244.084735;1.813;0.049;0.147;1;1165002945
-244.073099;1.813;0.098;0.147;1;1165014581
-244.061640;1.813;0.098;0.147;1;1165026040
-244.048519;1.7639999;0.147;0.147;1;1165039161
-244.034337;1.7149999;0.147;0.196;1;1165053343
-243.989791;1.7639999;0.098;0.196;1;1165097889
-243.974491;1.7639999;0.098;0.147;1;1165113189
-243.954776;1.7149999;0.098;0.196;1;1165132904
-243.942070;1.7639999;0.098;0.196;1;1165145610
-243.930520;1.7639999;0.098;0.196;1;1165157160
-243.911350;1.7639999;0.098;0.147;1;1165176330
-243.891575;1.813;0.196;0.196;1;1165196105
-243.879573;1.813;0.147;0.147;1;1165208107
-243.868589;1.7639999;0.196;0.147;1;1165219091
-243.856092;1.813;0.098;0.244999984;1;1165231588
-243.844534;1.7639999;0.147;0.196;1;1165243146
-243.832225;1.7639999;0.147;0.196;1;1165255455
-243.820942;1.7639999;0.147;0.196;1;1165266738
-243.801716;1.7639999;0.147;0.147;1;1165285964
-243.782570;1.813;0.098;0.147;1;1165305110
-243.770608;1.7639999;0.147;0.147;1;1165317072
-243.748549;1.7149999;0.147;0.196;1;1165339131
-243.734775;1.7149999;0.147;0.196;1;1165352905
-243.711773;1.7639999;0.098;0.196;1;1165375907
-243.678729;1.7639999;0.196;0.244999984;1;1165408951
-243.667793;1.813;0.098;0.147;1;1165419887
-243.652150;1.7639999;0.147;0.196;1;1165435530
-243.641536;1.7639999;0.147;0.098;1;1165446144
-243.629474;1.7639999;0.147;0.147;1;1165458206
-243.610289;1.7639999;0.147;0.098;1;1165477391
-243.578474;1.7149999;0.196;0.196;1;1165509206
-243.567421;1.7639999;0.147;0.147;1;1165520259
-243.553876;1.7639999;0.147;0.244999984;1;1165533804
-243.521036;1.7149999;0.147;0.196;1;1165566644
-243.506267;1.813;0.147;0.147;1;1165581413
-243.485878;1.7639999;0.147;0.098;1;1165601802
-243.474715;1.7149999;0.147;0.196;1;1165612965
-243.436801;1.7639999;0.147;0.147;1;1165650879
-243.423660;1.7639999;0.147;0.196;1;1165664020
-243.403956;1.7149999;0.196;0.196;1;1165683724
-243.391943;1.7639999;0.196;0.196;1;1165695737
-243.378169;1.7639999;0.196;0.196;1;1165709511
-243.367783;1.813;0.098;0.147;1;1165719897
-243.356775;1.813;0.147;0.147;1;1165730905
-243.345636;1.7639999;0.147;0.147;1;1165742044
-243.332836;1.7639999;0.147;0.147;1;1165754844
-243.310885;1.7639999;0.098;0.147;1;1165776795
-243.298944;1.7149999;0.147;0.147;1;1165788736
-243.285102;1.7639999;0.147;0.147;1;1165802578
-243.270112;1.813;0.098;0.196;1;1165817568
-243.257353;1.7639999;0.147;0.244999984;1;1165830327
-243.246528;1.7639999;0.196;0.244999984;1;1165841152
-243.233165;1.7639999;0.147;0.196;1;1165854515
-243.220773;1.7149999;0.147;0.196;1;1165866907
-243.208628;1.7149999;0.147;0.196;1;1165879052
-243.195766;1.7149999;0.196;0.196;1;1165891914
-243.182235;1.7639999;0.147;0.196;1;1165905445
-243.171346;1.7639999;0.147;0.196;1;1165916334
-243.146751;1.7149999;0.098;0.244999984;1;1165940929
-243.129912;1.7639999;0.098;0.196;1;1165957768
-243.118405;1.7149999;0.147;0.196;1;1165969275
-243.084187;1.7639999;0.147;0.196;1;1166003493
-243.067034;1.7639999;0.147;0.196;1;1166020646
-243.053524;1.7149999;0.147;0.196;1;1166034156
-243.042753;1.813;0.049;0.147;1;1166044927
-243.031775;1.7149999;0.147;0.196;1;1166055905
-243.017995;1.7639999;0.147;0.196;1;1166069685
-242.992876;1.7639999;0.147;0.147;1;1166094804
-242.981507;1.7149999;0.147;0.147;1;1166106173
-242.970724;1.7639999;0.147;0.294;1;1166116956
-242.948762;1.7639999;0.147;0.147;1;1166138918
-242.937785;1.813;0.098;0.196;1;1166149895
-242.912755;1.7639999;0.098;0.244999984;1;1166174925
-242.890290;1.7639999;0.098;0.196;1;1166197390
-242.878869;1.7639999;0.147;0.196;1;1166208811
-242.867630;1.7639999;0.147;0.196;1;1166220050
-242.855256;1.7149999;0.147;0.147;1;1166232424
-242.844495;1.862;0.098;0.196;1;1166243185
-242.832287;1.7639999;0.147;0.147;1;1166255393
-242.819814;1.7149999;0.147;0.098;1;1166267866
-242.801624;1.813;0.098;0.196;1;1166286056
-242.781859;1.7639999;0.098;0.244999984;1;1166305821
-242.768775;1.7639999;0.196;0.147;1;1166318905
-242.754166;1.7639999;0.147;0.147;1;1166333514
-242.731654;1.813;0.147;0.147;1;1166356026
-242.711605;1.7639999;0.147;0.196;1;1166376075
-242.699581;1.7639999;0.147;0.147;1;1166388099
-242.681656;1.7639999;0.098;0.196;1;1166406024
-242.667599;1.7639999;0.196;0.196;1;1166420081
-242.654157;1.7149999;0.147;0.147;1;1166433523
-242.620117;1.813;0.147;0.147;1;1166467563
-242.608165;1.7639999;0.147;0.147;1;1166479515
-242.586663;1.7639999;0.147;0.196;1;1166501017
-242.575278;1.813;0.147;0.196;1;1166512402
-242.556211;1.813;0.147;0.196;1;1166531469
-242.518685;1.7639999;0.098;0.147;1;1166568995
-242.495870;1.7639999;0.196;0.147;1;1166591810
-242.484282;1.813;0.098;0.196;1;1166603398
-242.468865;1.7639999;0.147;0.196;1;1166618815
-242.443436;1.7639999;0.147;0.147;1;1166644244
-242.421769;1.7639999;0.098;0.196;1;1166665911
-242.410768;1.7149999;0.098;0.196;1;1166676912
-242.399384;1.7639999;0.049;0.196;1;1166688296
-242.386949;1.7639999;0.098;0.147;1;1166700731
-242.375585;1.7639999;0.147;0.147;1;1166712095
-242.360866;1.7639999;0.147;0.147;1;1166726814
-242.349909;1.813;0.147;0.196;1;1166737771
-242.338290;1.7639999;0.147;0.147;1;1166749390
-242.321828;1.7639999;0.098;0.147;1;1166765852
-242.309800;1.7639999;0.147;0.196;1;1166777880
-242.291353;1.7639999;0.196;0.196;1;1166796327
-242.278358;1.7149999;0.147;0.244999984;1;1166809322
-242.257744;1.7639999;0.147;0.196;1;1166829936
-242.246395;1.7149999;0.147;0.196;1;1166841285
-242.227225;1.7639999;0.147;0.147;1;1166860455
-242.216766;1.813;0.147;0.147;1;1166870914
-242.180332;1.7639999;0.098;0.147;1;1166907348
-242.168659;1.7639999;0.147;0.196;1;1166919021
-242.153335;1.7639999;0.147;0.244999984;1;1166934345
-242.141384;1.7639999;0.196;0.196;1;1166946296
-242.129449;1.813;0.098;0.196;1;1166958231
-242.115891;1.7639999;0.147;0.147;1;1166971789
-242.099934;1.813;0.098;0.244999984;1;1166987746
-242.088682;1.7639999;0.147;0.147;1;1166998998
-242.077473;1.7149999;0.147;0.147;1;1167010207
-242.066081;1.813;0.098;0.147;1;1167021599
-242.051190;1.7639999;0.098;0.196;1;1167036490
-242.040140;1.7639999;0.098;0.244999984;1;1167047540
-242.029374;1.7639999;0.098;0.196;1;1167058306
-242.018237;1.813;0.098;0.196;1;1167069443
-242.001635;1.813;0.098;0.147;1;1167086045
-241.984055;1.7639999;0.098;0.147;1;1167103625
-241.972652;1.7639999;0.147;0.098;1;1167115028
-241.961241;1.813;0.147;0.196;1;1167126439
-241.950610;1.7639999;0.098;0.147;1;1167137070
-241.938751;1.813;0.147;0.196;1;1167148929
-241.919395;1.813;0.147;0.196;1;1167168285
-241.899655;1.7149999;0.147;0.147;1;1167188025
-241.883329;1.7639999;0.098;0.196;1;1167204351
-241.872279;1.7639999;0.196;0.244999984;1;1167215401
-241.848228;1.7639999;0.147;0.147;1;1167239452
-241.837171;1.7639999;0.098;0.244999984;1;1167250509
-241.820037;1.7639999;0.147;0.147;1;1167267643
-241.808659;1.813;0.147;0.196;1;1167279021
-241.791583;1.813;0.147;0.147;1;1167296097
-241.754807;1.7639999;0.147;0.244999984;1;1167332873
-241.741084;1.7639999;0.098;0.147;1;1167346596
-241.721202;1.813;0.147;0.196;1;1167366478
-241.701280;1.7639999;0.147;0.147;1;1167386400
-241.688795;1.813;0.147;0.244999984;1;1167398885
-241.677285;1.7149999;0.147;0.196;1;1167410395
-241.650476;1.7149999;0.147;0.147;1;1167437204
-241.639510;1.813;0.098;0.196;1;1167448170
-241.621750;1.7639999;0.147;0.147;1;1167465930
-241.610700;1.7639999;0.098;0.196;1;1167476980
-241.598308;1.813;0.147;0.196;1;1167489372
-241.586727;1.813;0.098;0.196;1;1167500953
-241.575302;1.813;0.098;0.147;1;1167512378
-241.562262;1.813;0.098;0.196;1;1167525418
-241.550871;1.7639999;0.098;0.244999984;1;1167536809
-241.538790;1.7639999;0.147;0.147;1;1167548890
-241.521782;1.7639999;0.098;0.196;1;1167565898
-241.510717;1.813;0.147;0.098;1;1167576963
-241.491314;1.7639999;0.147;0.196;1;1167596366
-241.478572;1.7639999;0.147;0.196;1;1167609108
-241.467721;1.7639999;0.147;0.196;1;1167619959
-241.441620;1.7149999;0.147;0.147;1;1167646060
-241.429028;1.7149999;0.098;0.147;1;1167658652
-241.411687;1.7639999;0.147;0.147;1;1167675993
-241.400633;1.813;0.098;0.196;1;1167687047
-241.389656;1.7149999;0.147;0.147;1;1167698024
-241.376536;1.7639999;0.098;0.196;1;1167711144
-241.363604;1.7639999;0.147;0.196;1;1167724076
-241.352439;1.7639999;0.147;0.196;1;1167735241
-241.337015;1.813;0.098;0.147;1;1167750665
-241.305675;1.7639999;0.147;0.196;1;1167782005
-241.289273;1.7639999;0.147;0.147;1;1167798407
-241.274767;1.7639999;0.147;0.196;1;1167812913
-241.244615;1.7639999;0.147;0.196;1;1167843065
-241.233522;1.7639999;0.098;0.196;1;1167854158
-241.214741;1.7639999;0.098;0.196;1;1167872939
-241.199142;1.7639999;0.147;0.147;1;1167888538
-241.188602;1.7639999;0.147;0.147;1;1167899078
-241.175560;1.813;0.098;0.196;1;1167912120
-241.159132;1.7639999;0.098;0.147;1;1167928548
-241.148321;1.7639999;0.196;0.147;1;1167939359
-241.137035;1.7639999;0.196;0.244999984;1;1167950645
-241.109168;1.813;0.098;0.196;1;1167978512
-241.091506;1.7639999;0.147;0.147;1;1167996174
-241.080046;1.7639999;0.098;0.147;1;1168007634
-241.068479;1.7639999;0.147;0.147;1;1168019201
-241.054956;1.7639999;0.196;0.147;1;1168032724
-241.037187;1.7639999;0.147;0.147;1;1168050493
-241.012891;1.7639999;0.147;0.098;1;1168074789
-240.998181;1.7639999;0.196;0.196;1;1168089499
-240.985767;1.7639999;0.098;0.196;1;1168101913
-240.974796;1.7639999;0.147;0.196;1;1168112884
-240.962539;1.7149999;0.196;0.196;1;1168125141
-240.951415;1.7639999;0.098;0.196;1;1168136265
-240.936804;1.7149999;0.147;0.147;1;1168150876
-240.905950;1.7639999;0.147;0.147;1;1168181730
-240.891129;1.7639999;0.147;0.147;1;1168196551
-240.854368;1.7149999;0.147;0.196;1;1168233312
-240.843286;1.7639999;0.147;0.196;1;1168244394
-240.826259;1.7639999;0.147;0.147;1;1168261421
-240.811231;1.7639999;0.147;0.196;1;1168276449
-240.798846;1.7639999;0.147;0.147;1;1168288834
-240.787017;1.7639999;0.147;0.196;1;1168300663
-240.775407;1.7639999;0.147;0.196;1;1168312273
-240.764849;1.7639999;0.147;0.196;1;1168322831
-240.750672;1.813;0.049;0.196;1;1168337008
-240.720544;1.813;0.147;0.147;1;1168367136
-240.700220;1.7149999;0.147;0.147;1;1168387460
-240.689076;1.7639999;0.098;0.196;1;1168398604
-240.678591;1.7639999;0.196;0.196;1;1168409089
-240.667179;1.7639999;0.147;0.196;1;1168420501
-240.655502;1.813;0.098;0.196;1;1168432178
-240.640612;1.7639999;0.147;0.196;1;1168447068
-240.629264;1.7639999;0.147;0.196;1;1168458416
-240.618812;1.7639999;0.147;0.196;1;1168468868
-240.603416;1.7639999;0.196;0.147;1;1168484264
-240.589510;1.7639999;0.147;0.147;1;1168498170
-240.578883;1.7639999;0.098;0.147;1;1168508797
-240.566292;1.813;0.147;0.147;1;1168521388
-240.548392;1.7149999;0.147;0.196;1;1168539288
-240.536466;1.7639999;0.147;0.196;1;1168551214
-240.514680;1.7639999;0.049;0.196;1;1168573000
-240.495725;1.7639999;0.098;0.196;1;1168591955
-240.473444;1.7639999;0.098;0.196;1;1168614236
-240.428585;1.813;0.098;0.098;1;1168659095
-240.406194;1.7149999;0.147;0.196;1;1168681486
-240.391892;1.813;0.147;0.196;1;1168695788
-240.380886;1.7639999;0.147;0.196;1;1168706794
-240.367879;1.813;0.098;0.196;1;1168719801
-240.356552;1.7639999;0.147;0.196;1;1168731128
-240.342752;1.7639999;0.098;0.196;1;1168744928
-240.329917;1.813;0.098;0.147;1;1168757763
-240.318739;1.813;0.098;0.147;1;1168768941
-240.303930;1.813;0.098;0.147;1;1168783750
-240.281877;1.7639999;0.098;0.196;1;1168805803
-240.270551;1.7149999;0.147;0.196;1;1168817129
-240.258626;1.7639999;0.147;0.196;1;1168829054
-240.241642;1.7149999;0.147;0.244999984;1;1168846038
-240.217713;1.7639999;0.098;0.196;1;1168869967
-240.205357;1.7639999;0.147;0.244999984;1;1168882323
-240.178068;1.7639999;0.147;0.196;1;1168909612
-240.166802;1.7639999;0.098;0.196;1;1168920878
-240.155939;1.7639999;0.098;0.147;1;1168931741
-240.139465;1.7639999;0.147;0.147;1;1168948215
-240.115899;1.7639999;0.098;0.196;1;1168971781
-240.085580;1.813;0.147;0.196;1;1169002100
-240.072446;1.7639999;0.196;0.196;1;1169015234
-240.035139;1.813;0.147;0.147;1;1169052541
-240.023070;1.7639999;0.098;0.196;1;1169064610
-240.005592;1.813;0.098;0.147;1;1169082088
-239.994740;1.813;0.098;0.196;1;1169092940
-239.982833;1.7639999;0.098;0.147;1;1169104847
-239.971659;1.7639999;0.098;0.196;1;1169116021
-239.948962;1.7639999;0.147;0.196;1;1169138718
-239.935961;1.7149999;0.147;0.196;1;1169151719
-239.908257;1.7639999;0.147;0.196;1;1169179423
-239.892011;1.7639999;0.147;0.147;1;1169195669
-239.879966;1.813;0.147;0.147;1;1169207714
-239.868736;1.7149999;0.098;0.196;1;1169218944
-239.857594;1.7639999;0.049;0.147;1;1169230086
-239.841905;1.7639999;0.098;0.147;1;1169245775
-239.822582;1.7639999;0.049;0.196;1;1169265098
-239.803949;1.7639999;0.098;0.244999984;1;1169283731
-239.790989;1.813;0.098;0.147;1;1169296691
-239.779896;1.7639999;0.196;0.196;1;1169307784
-239.768321;1.813;0.196;0.147;1;1169319359
-239.754638;1.7639999;0.147;0.147;1;1169333042
-239.742026;1.7149999;0.196;0.147;1;1169345654
-239.722853;1.813;0.098;0.147;1;1169364827
-239.710399;1.813;0.098;0.147;1;1169377281
-239.690854;1.7639999;0.147;0.147;1;1169396826
-239.679788;1.7639999;0.147;0.147;1;1169407892
-239.668203;1.7149999;0.098;0.196;1;1169419477
-239.656272;1.813;0.098;0.196;1;1169431408
-239.642529;1.7639999;0.147;0.196;1;1169445151
-239.601197;1.7639999;0.098;0.147;1;1169486483
-239.581392;1.7639999;0.147;0.098;1;1169506288
-239.569999;1.7639999;0.147;0.147;1;1169517681
-239.547928;1.813;0.147;0.196;1;1169539752
-239.536051;1.7639999;0.147;0.147;1;1169551629
-239.521834;1.7639999;0.098;0.196;1;1169565846
-239.508668;1.7639999;0.147;0.147;1;1169579012
-239.492854;1.7639999;0.098;0.147;1;1169594826
-239.478409;1.7639999;0.098;0.196;1;1169609271
-239.467351;1.7639999;0.098;0.196;1;1169620329
-239.454289;1.7639999;0.147;0.147;1;1169633391
-239.430389;1.7639999;0.196;0.147;1;1169657291
-239.404833;1.7639999;0.098;0.196;1;1169682847
-239.382835;1.7149999;0.147;0.196;1;1169704845
-239.368019;1.813;0.147;0.196;1;1169719661
-239.355867;1.7639999;0.147;0.244999984;1;1169731813
-239.332809;1.813;0.098;;0;1169754871
-239.321799;1.7639999;0.147;0.196;1;1169765881
-239.302891;1.7639999;0.196;0.147;1;1169784789
-239.291836;1.7639999;0.147;0.196;1;1169795844
-239.280842;1.7639999;0.098;0.196;1;1169806838
-239.266868;1.813;0.147;0.196;1;1169820812
-239.254850;1.7639999;0.196;0.147;1;1169832830
-239.240802;1.813;0.147;0.244999984;1;1169846878
-239.225346;1.7639999;0.147;0.147;1;1169862334
-239.211090;1.7639999;0.147;0.147;1;1169876590
-239.191247;1.7639999;0.098;0.196;1;1169896433
-239.180155;1.7639999;0.147;0.147;1;1169907525
-239.169429;1.813;0.098;0.147;1;1169918251
-239.124948;1.7639999;0.147;0.147;1;1169962732
-239.109576;1.7639999;0.196;0.196;1;1169978104
-239.090947;1.7639999;0.147;0.147;1;1169996733
-239.077844;1.7639999;0.098;0.196;1;1170009836
-239.064186;1.7639999;0.147;0.147;1;1170023494
-239.051665;1.7639999;0.147;0.196;1;1170036015
-239.028748;1.7639999;0.147;0.244999984;1;1170058932
-239.017314;1.7639999;0.098;0.196;1;1170070366
-239.003565;1.7639999;0.098;0.196;1;1170084115
-238.981653;1.7639999;0.147;0.147;1;1170106027
-238.969213;1.7639999;0.098;0.196;1;1170118467
-238.955728;1.7639999;0.098;0.147;1;1170131952
-238.940628;1.813;0.098;0.147;1;1170147052
-238.928545;1.7639999;0.147;0.147;1;1170159135
-238.916936;1.7149999;0.147;0.196;1;1170170744
-238.901821;1.7639999;0.147;0.147;1;1170185859
-238.890110;1.7149999;0.147;0.196;1;1170197570
-238.879356;1.813;0.147;0.196;1;1170208324
-238.866831;1.7639999;0.147;0.244999984;1;1170220849
-238.853290;1.7639999;0.098;0.196;1;1170234390
-238.840941;1.7149999;0.147;0.196;1;1170246739
-238.821776;1.813;0.147;0.196;1;1170265904
-238.808285;1.7639999;0.147;0.147;1;1170279395
-238.783887;1.7639999;0.147;0.147;1;1170303793
-238.765601;1.7639999;0.147;0.196;1;1170322079
-238.752683;1.7639999;0.147;0.196;1;1170334997
-238.740815;1.813;0.098;0.147;1;1170346865
-238.713232;1.7639999;0.098;0.196;1;1170374448
-238.702666;1.7149999;0.147;0.196;1;1170385014
-238.661834;1.7149999;0.196;0.196;1;1170425846
-238.650265;1.7639999;0.147;0.147;1;1170437415
-238.638984;1.7639999;0.147;0.196;1;1170448696
-238.626318;1.813;0.147;0.196;1;1170461362
-238.614515;1.813;0.147;0.147;1;1170473165
-238.603668;1.7639999;0.147;0.147;1;1170484012
-238.590450;1.7639999;0.147;0.196;1;1170497230
-238.579842;1.813;0.098;0.196;1;1170507838
-238.563051;1.7149999;0.098;0.196;1;1170524629
-238.540887;1.7639999;0.147;0.196;1;1170546793
-238.529947;1.7639999;0.147;0.196;1;1170557733
-238.514296;1.7639999;0.147;0.196;1;1170573384
-238.502393;1.7639999;0.098;0.244999984;1;1170585287
-238.489968;1.7639999;0.147;0.196;1;1170597712
-238.478828;1.7639999;0.147;0.147;1;1170608852
-238.462723;1.813;0.147;0.147;1;1170624957
-238.451862;1.7639999;0.147;0.196;1;1170635818
-238.440573;1.813;0.147;0.147;1;1170647107
-238.421148;1.7639999;0.147;0.196;1;1170666532
-238.402460;1.7639999;0.147;0.196;1;1170685220
-238.379920;1.7639999;0.098;0.196;1;1170707760
-238.364502;1.813;0.098;0.147;1;1170723178
-238.353118;1.7639999;0.147;0.147;1;1170734562
-238.340753;1.7149999;0.098;0.196;1;1170746927
-238.321152;1.7639999;0.098;0.196;1;1170766528
-238.302800;1.813;0.147;0.196;1;1170784880
-238.290065;1.7639999;0.098;0.196;1;1170797615
-238.278873;1.7639999;0.147;0.147;1;1170808807
-238.262768;1.7639999;0.147;0.244999984;1;1170824912
-238.223324;1.7639999;0.147;0.147;1;1170864356
-238.186638;1.7639999;0.098;0.196;1;1170901042
-238.175505;1.7639999;0.147;0.098;1;1170912175
-238.149714;1.7639999;0.147;0.147;1;1170937966
-238.134234;1.7639999;0.147;0.196;1;1170953446
-238.122192;1.7639999;0.147;0.196;1;1170965488
-238.109265;1.813;0.098;0.196;1;1170978415
-238.098724;1.7639999;0.098;0.196;1;1170988956
-238.085538;1.7639999;0.098;0.196;1;1171002142
-238.074287;1.7149999;0.196;0.196;1;1171013393
-238.049483;1.813;0.098;0.098;1;1171038197
-238.036524;1.7639999;0.098;0.147;1;1171051156
-238.007119;1.7639999;0.147;0.196;1;1171080561
-237.996580;1.813;0.098;0.244999984;1;1171091100
-237.981440;1.813;0.147;0.196;1;1171106240
-237.970861;1.813;0.147;0.196;1;1171116819
-237.953930;1.7639999;0.147;0.196;1;1171133750
-237.942911;1.7639999;0.147;0.196;1;1171144769
-237.930531;1.7639999;0.147;0.196;1;1171157149
-237.916414;1.7149999;0.196;0.196;1;1171171266
-237.905770;1.7639999;0.147;0.147;1;1171181910
-237.889175;1.7639999;0.098;0.196;1;1171198505
-237.875709;1.7639999;0.147;0.147;1;1171211971
-237.857527;1.7149999;0.196;0.196;1;1171230153
-237.823076;1.7639999;0.147;0.244999984;1;1171264604
-237.810309;1.862;0.147;0.147;1;1171277371
-237.790958;1.7149999;0.147;0.244999984;1;1171296722
-237.777863;1.7639999;0.098;0.147;1;1171309817
-237.764697;1.7639999;0.098;0.196;1;1171322983
-237.751325;1.813;0.098;0.147;1;1171336355
-237.738392;1.7639999;0.147;0.147;1;1171349288
-237.721805;1.7639999;0.147;0.147;1;1171365875
-237.710505;1.7149999;0.147;0.196;1;1171377175
-237.691753;1.813;0.147;0.196;1;1171395927
-237.677342;1.7149999;0.147;0.244999984;1;1171410338
-237.663668;1.7639999;0.196;0.196;1;1171424012
-237.652824;1.7639999;0.147;0.196;1;1171434856
-237.639520;1.7639999;0.147;0.147;1;1171448160
-237.622920;1.813;0.098;0.196;1;1171464760
-237.602297;1.7639999;0.098;0.147;1;1171485383
-237.577754;1.7639999;0.098;0.196;1;1171509926
-237.563019;1.7149999;0.147;0.147;1;1171524661
-237.551797;1.7639999;0.147;0.147;1;1171535883
-237.540175;1.7639999;0.196;0.244999984;1;1171547505
-237.521412;1.7149999;0.098;0.196;1;1171566268
-237.510661;1.7639999;0.147;0.244999984;1;1171577019
-237.499143;1.7639999;0.147;0.196;1;1171588537
-237.488497;1.7639999;0.098;0.196;1;1171599183
-237.473954;1.7639999;0.147;0.147;1;1171613726
-237.460061;1.813;0.098;0.147;1;1171627619
-237.449590;1.7639999;0.147;0.147;1;1171638090
-237.438716;1.7149999;0.098;0.147;1;1171648964
-237.427744;1.7639999;0.147;0.147;1;1171659936
-237.415385;1.7639999;0.098;0.196;1;1171672295
-237.346147;1.7639999;0.147;0.196;1;1171741533
-237.331910;1.813;0.098;0.196;1;1171755770
-237.320750;1.7639999;0.147;0.196;1;1171766930
-237.303471;1.7149999;0.147;0.147;1;1171784209
-237.281703;1.7639999;0.098;0.147;1;1171805977
-237.269435;1.7149999;0.147;0.196;1;1171818245
-237.257623;1.7639999;0.098;0.098;1;1171830057
-237.241186;1.813;0.147;0.147;1;1171846494
-237.216376;1.7639999;0.147;0.147;1;1171871304
-237.204745;1.7639999;0.147;0.196;1;1171882935
-237.191295;1.813;0.098;0.147;1;1171896385
-237.180628;1.813;0.147;0.196;1;1171907052
-237.165599;1.7639999;0.147;0.196;1;1171922081
-237.152219;1.7639999;0.147;0.196;1;1171935461
-237.134971;1.7149999;0.147;0.196;1;1171952709
-237.121974;1.7639999;0.098;0.196;1;1171965706
-237.110646;1.7639999;0.147;0.196;1;1171977034
-237.097618;1.7639999;0.147;0.147;1;1171990062
-237.075947;1.7639999;0.098;0.147;1;1172011733
-237.064867;1.7639999;0.098;0.196;1;1172022813
-237.052500;1.7639999;0.147;0.147;1;1172035180
-237.041870;1.7639999;0.098;0.244999984;1;1172045810
-237.028746;1.7639999;0.098;0.147;1;1172058934
-237.017938;1.813;0.147;0.196;1;1172069742
-237.005195;1.7639999;0.147;0.196;1;1172082485
-236.979653;1.813;0.147;0.196;1;1172108027
-236.968393;1.7149999;0.147;0.196;1;1172119287
-236.916183;1.7639999;0.147;0.147;1;1172171497
-236.901753;1.7639999;0.147;0.196;1;1172185927
-236.887844;1.7639999;0.147;0.147;1;1172199836
-236.876179;1.7149999;0.196;0.196;1;1172211501
-236.864311;1.7149999;0.147;0.147;1;1172223369
-236.850363;1.7639999;0.147;0.196;1;1172237317
-236.839787;1.7639999;0.147;0.147;1;1172247893
-236.821724;1.813;0.147;0.098;1;1172265956
-236.804769;1.7639999;0.098;0.098;1;1172282911
-236.790310;1.7639999;0.147;0.147;1;1172297370
-236.779708;1.7639999;0.098;0.196;1;1172307972
-236.767946;1.7639999;0.098;0.196;1;1172319734
-236.754618;1.7149999;0.098;0.196;1;1172333062
-236.743825;1.7639999;0.196;0.244999984;1;1172343855
-236.732957;1.7639999;0.147;0.147;1;1172354723
-236.720613;1.7639999;0.196;0.147;1;1172367067
-236.707280;1.813;0.098;0.196;1;1172380400
-236.691661;1.813;0.147;0.147;1;1172396019
-236.679928;1.7639999;0.147;0.196;1;1172407752
-236.664676;1.7639999;0.098;0.196;1;1172423004
-236.650656;1.7639999;0.147;0.147;1;1172437024
-236.611663;1.813;0.098;0.196;1;1172476017
-236.597595;1.7149999;0.147;0.196;1;1172490085
-236.586160;1.7639999;0.147;0.147;1;1172501520
-236.575272;1.7639999;0.196;0.196;1;1172512408
-236.564232;1.7639999;0.196;0.196;1;1172523448
-236.548879;1.7639999;0.147;0.147;1;1172538801
-236.531819;1.813;0.098;0.147;1;1172555861
-236.520326;1.7639999;0.098;0.147;1;1172567354
-236.493744;1.7639999;0.147;0.196;1;1172593936
-236.476507;1.7639999;0.147;0.196;1;1172611173
-236.450588;1.7639999;0.098;0.196;1;1172637092
-236.437223;1.7639999;0.098;0.196;1;1172650457
-236.411764;1.813;0.098;0.147;1;1172675916
-236.400902;1.813;0.147;0.196;1;1172686778
-236.384338;1.7639999;0.147;0.147;1;1172703342
-236.374015;1.7149999;0.147;0.196;1;1172713665
-236.348917;1.7639999;0.147;0.196;1;1172738763
-236.337888;1.7639999;0.098;0.196;1;1172749792
-236.319801;1.813;0.098;0.147;1;1172767879
-236.308781;1.7639999;0.098;0.196;1;1172778899
-236.291755;1.7639999;0.098;0.244999984;1;1172795925
-236.278693;1.813;0.098;0.147;1;1172808987
-236.267110;1.7639999;0.147;0.147;1;1172820570
-236.254882;1.813;0.147;0.196;1;1172832798
-236.211072;1.813;0.147;0.147;1;1172876608
-236.191999;1.813;0.049;0.196;1;1172895681
-236.179141;1.7639999;0.147;0.196;1;1172908539
-236.164866;1.813;0.098;0.147;1;1172922814
-236.143535;1.7639999;0.098;0.147;1;1172944145
-236.132564;1.7639999;0.147;0.196;1;1172955116
-236.113963;1.7639999;0.147;0.196;1;1172973717
-236.103006;1.813;0.196;0.196;1;1172984674
-236.060592;1.813;0.147;0.147;1;1173027088
-236.046984;1.7639999;0.147;0.147;1;1173040696
-236.030546;1.7639999;0.098;0.147;1;1173057134
-236.011697;1.7149999;0.147;0.196;1;1173075983
-236.000004;1.813;0.098;0.147;1;1173087676
-235.989383;1.7639999;0.098;0.147;1;1173098297
-235.978099;1.7639999;0.098;0.147;1;1173109581
-235.967384;1.7639999;0.098;0.147;1;1173120296
-235.951786;1.7639999;0.098;0.147;1;1173135894
-235.940786;1.813;0.147;0.196;1;1173146894
-235.929726;1.7639999;0.147;0.196;1;1173157954
-235.910261;1.7149999;0.147;0.196;1;1173177419
-235.899622;1.7639999;0.147;0.244999984;1;1173188058
-235.887839;1.813;0.098;0.147;1;1173199841
-235.876474;1.813;0.147;0.196;1;1173211206
-235.865372;1.7639999;0.147;0.147;1;1173222308
-235.851428;1.7639999;0.098;0.147;1;1173236252
-235.840878;1.7639999;0.098;0.147;1;1173246802
-235.829334;1.7639999;0.147;0.244999984;1;1173258346
-235.811272;1.7639999;0.147;0.147;1;1173276408
-235.799535;1.7639999;0.098;0.147;1;1173288145
-235.787489;1.7639999;0.098;0.147;1;1173300191
-235.776698;1.7639999;0.147;0.147;1;1173310982
-235.765184;1.7639999;0.147;0.196;1;1173322496
-235.751573;1.7639999;0.098;0.147;1;1173336107
-235.739755;1.7639999;0.147;0.196;1;1173347925
-235.728815;1.7149999;0.147;0.196;1;1173358865
-235.711812;1.7639999;0.098;0.147;1;1173375868
-235.700100;1.7639999;0.098;0.196;1;1173387580
-235.688832;1.813;0.098;0.196;1;1173398848
-235.675541;1.7639999;0.098;0.196;1;1173412139
-235.634645;1.7639999;0.147;0.147;1;1173453035
-235.619490;1.813;0.147;0.147;1;1173468190
-235.606793;1.7639999;0.196;0.196;1;1173480887
-235.591293;1.7149999;0.147;0.196;1;1173496387
-235.578860;1.7639999;0.098;0.196;1;1173508820
-235.567133;1.7639999;0.147;0.196;1;1173520547
-235.555295;1.7639999;0.147;0.196;1;1173532385
-235.536767;1.813;0.147;0.147;1;1173550913
-235.514287;1.7639999;0.147;0.196;1;1173573393
-235.502532;1.7639999;0.147;0.147;1;1173585148
-235.490556;1.7639999;0.098;0.147;1;1173597124
-235.479960;1.7639999;0.196;0.294;1;1173607720
-235.465563;1.7639999;0.147;0.147;1;1173622117
-235.454796;1.7639999;0.147;0.147;1;1173632884
-235.442229;1.7639999;0.147;0.147;1;1173645451
-235.431544;1.7639999;0.147;0.196;1;1173656136
-235.414091;1.813;0.098;0.244999984;1;1173673589
-235.401063;1.813;0.098;0.244999984;1;1173686617
-235.378075;1.7639999;0.098;0.196;1;1173709605
-235.363809;1.813;0.098;0.196;1;1173723871
-235.352716;1.7639999;0.147;0.147;1;1173734964
-235.341324;1.7149999;0.098;0.196;1;1173746356
-235.316153;1.7639999;0.098;0.196;1;1173771527
-235.292428;1.7639999;0.196;0.196;1;1173795252
-235.281608;1.7639999;0.098;0.196;1;1173806072
-235.270293;1.7639999;0.147;0.196;1;1173817387
-235.247966;1.7639999;0.098;0.196;1;1173839714
-235.231598;1.813;0.098;0.147;1;1173856082
-235.193169;1.7639999;0.098;0.147;1;1173894511
-235.167802;1.7639999;0.147;0.196;1;1173919878
-235.149934;1.813;0.098;0.196;1;1173937746
-235.138317;1.7639999;0.147;0.196;1;1173949363
-235.127527;1.7639999;0.147;0.196;1;1173960153
-235.116216;1.7639999;0.147;0.196;1;1173971464
-235.100559;1.7639999;0.098;0.147;1;1173987121
-235.089265;1.7149999;0.196;0.196;1;1173998415
-235.074549;1.862;0.098;0.147;1;1174013131
-235.061921;1.7639999;0.147;0.196;1;1174025759
-235.050581;1.813;0.147;0.196;1;1174037099
-235.035153;1.813;0.098;0.147;1;1174052527
-235.022606;1.813;0.147;0.147;1;1174065074
-235.009824;1.813;0.098;0.196;1;1174077856
-234.992730;1.7639999;0.098;0.244999984;1;1174094950
-234.976956;1.7639999;0.098;0.147;1;1174110724
-234.962910;1.813;0.098;0.196;1;1174124770
-234.951109;1.7639999;0.147;0.196;1;1174136571
-234.933680;1.7639999;0.098;0.147;1;1174154000
-234.912920;1.7639999;0.147;0.147;1;1174174760
-234.895395;1.7639999;0.147;0.147;1;1174192285
-234.882512;1.7149999;0.147;0.196;1;1174205168
-234.871694;1.7639999;0.098;0.196;1;1174215986
-234.842841;1.813;0.147;0.147;1;1174244839
-234.830333;1.813;0.098;0.196;1;1174257347
-234.810844;1.7639999;0.098;0.147;1;1174276836
-234.796966;1.7639999;0.147;0.244999984;1;1174290714
-234.783745;1.813;0.098;0.196;1;1174303935
-234.736149;1.7149999;0.147;0.147;1;1174351531
-234.724470;1.7639999;0.147;0.147;1;1174363210
-234.711214;1.7639999;0.098;0.196;1;1174376466
-234.697797;1.813;0.098;0.196;1;1174389883
-234.686836;1.7639999;0.098;0.196;1;1174400844
-234.675160;1.7639999;0.147;0.147;1;1174412520
-234.664866;1.862;0.098;0.196;1;1174422814
-234.650304;1.7639999;0.147;0.196;1;1174437376
-234.629874;1.7639999;0.049;0.147;1;1174457806
-234.618066;1.7639999;0.147;0.147;1;1174469614
-234.601832;1.7639999;0.098;0.196;1;1174485848
-234.590452;1.7639999;0.147;0.147;1;1174497228
-234.578227;1.7149999;0.098;0.196;1;1174509453
-234.566391;1.7639999;0.098;0.196;1;1174521289
-234.555262;1.7639999;0.147;0.147;1;1174532418
-234.541513;1.7639999;0.147;0.196;1;1174546167
-234.529832;1.7639999;0.098;0.196;1;1174557848
-234.511331;1.7149999;0.147;0.196;1;1174576349
-234.498961;1.7639999;0.147;0.196;1;1174588719
-234.487103;1.7639999;0.147;0.196;1;1174600577
-234.475415;1.7639999;0.147;0.244999984;1;1174612265
-234.441574;1.7149999;0.147;0.147;1;1174646106
-234.430284;1.7639999;0.098;0.196;1;1174657396
-234.419662;1.7639999;0.147;0.147;1;1174668018
-234.402195;1.813;0.098;0.098;1;1174685485
-234.388835;1.813;0.098;0.196;1;1174698845
-234.371647;1.7639999;0.147;0.244999984;1;1174716033
-234.339365;1.813;0.196;0.147;1;1174748315
-234.321637;1.862;0.147;0.196;1;1174766043
-234.287347;1.7639999;0.147;0.147;1;1174800333
-234.269755;1.7149999;0.196;0.196;1;1174817925
-234.246029;1.7639999;0.196;0.147;1;1174841651
-234.234691;1.7639999;0.098;0.196;1;1174852989
-234.221546;1.813;0.147;0.196;1;1174866134
-234.204534;1.7639999;0.147;0.196;1;1174883146
-234.193744;1.813;0.147;0.196;1;1174893936
-234.182064;1.813;0.098;0.147;1;1174905616
-234.168364;1.813;0.098;0.147;1;1174919316
-234.153670;1.7149999;0.147;0.196;1;1174934010
-234.142810;1.813;0.098;0.147;1;1174944870
-234.130346;1.7639999;0.147;0.244999984;1;1174957334
-234.119980;1.7639999;0.098;0.196;1;1174967700
-234.098990;1.7639999;0.147;0.196;1;1174988690
-234.087857;1.7639999;0.147;0.196;1;1174999823
-234.076585;1.7639999;0.147;0.196;1;1175011095
-234.065846;1.7639999;0.147;0.147;1;1175021834
-234.050589;1.7639999;0.147;0.147;1;1175037091
-234.039988;1.7149999;0.147;0.196;1;1175047692
-234.028728;1.813;0.147;0.196;1;1175058952
-234.010834;1.813;0.147;0.147;1;1175076846
-233.998229;1.813;0.098;0.196;1;1175089451
-233.985294;1.7149999;0.147;0.147;1;1175102386
-233.974787;1.813;0.147;0.196;1;1175112893
-233.963184;1.813;0.147;0.196;1;1175124496
-233.949872;1.7639999;0.147;0.196;1;1175137808
-233.938984;1.7639999;0.098;0.196;1;1175148696
-233.927603;1.7639999;0.147;0.196;1;1175160077
-233.912021;1.7639999;0.147;0.196;1;1175175659
-233.860980;1.7639999;0.147;0.244999984;1;1175226700
-233.845995;1.7639999;0.098;0.196;1;1175241685
-233.831384;1.7639999;0.147;0.147;1;1175256296
-233.809868;1.813;0.098;0.147;1;1175277812
-233.798851;1.7639999;0.147;0.196;1;1175288829
-233.787562;1.7639999;0.147;0.196;1;1175300118
-233.776332;1.813;0.098;0.196;1;1175311348
-233.765778;1.813;0.098;0.196;1;1175321902
-233.749725;1.7149999;0.147;0.147;1;1175337955
-233.738359;1.813;0.147;0.147;1;1175349321
-233.720188;1.813;0.147;0.147;1;1175367492
-233.706898;1.7149999;0.147;0.147;1;1175380782
-233.681178;1.813;0.098;0.196;1;1175406502
-233.661699;1.7639999;0.147;0.196;1;1175425981
-233.646581;1.7639999;0.098;0.244999984;1;1175441099
-233.631767;1.7639999;0.098;0.147;1;1175455913
-233.614096;1.7149999;0.147;0.244999984;1;1175473584
-233.600404;1.7639999;0.147;0.147;1;1175487276
-233.577980;1.813;0.147;0.147;1;1175509700
-233.566864;1.7639999;0.147;0.147;1;1175520816
-233.550216;1.7639999;0.147;0.147;1;1175537464
-233.540027;1.7639999;0.147;0.196;1;1175547653
-233.528845;1.7639999;0.196;0.098;1;1175558835
-233.517818;1.7149999;0.147;0.196;1;1175569862
-233.501656;1.813;0.098;0.147;1;1175586024
-233.487768;1.813;0.147;0.196;1;1175599912
-233.455109;1.7639999;0.098;0.147;1;1175632571
-233.433278;1.813;0.147;0.147;1;1175654402
-233.414425;1.7639999;0.147;0.196;1;1175673255
-233.402061;1.813;0.147;0.196;1;1175685619
-233.379652;1.7639999;0.098;0.147;1;1175708028
-233.367020;1.7639999;0.098;0.098;1;1175720660
-233.341706;1.7639999;0.147;0.147;1;1175745974
-233.329557;1.7639999;0.147;0.196;1;1175758123
-233.318630;1.7639999;0.147;0.196;1;1175769050
-233.307804;1.7639999;0.098;0.196;1;1175779876
-233.296071;1.7639999;0.098;0.196;1;1175791609
-233.285884;1.7639999;0.098;0.147;1;1175801796
-233.274078;1.813;0.147;0.147;1;1175813602
-233.263722;1.7639999;0.147;0.147;1;1175823958
-233.248919;1.7639999;0.147;0.147;1;1175838761
-233.231349;1.813;0.098;0.196;1;1175856331
-233.218099;1.7639999;0.147;0.147;1;1175869581
-233.189259;1.7149999;0.196;0.147;1;1175898421
-233.178703;1.813;0.147;0.196;1;1175908977
-233.160934;1.7639999;0.147;0.147;1;1175926746
-233.145912;1.7149999;0.147;0.147;1;1175941768
-233.133290;1.7639999;0.147;0.196;1;1175954390
-233.118893;1.7639999;0.098;0.196;1;1175968787
-233.107830;1.7639999;0.147;0.196;1;1175979850
-233.096790;1.7149999;0.196;0.147;1;1175990890
-233.085726;1.7639999;0.147;0.147;1;1176001954
-233.074127;1.813;0.098;0.196;1;1176013553
-233.062885;1.813;0.098;0.147;1;1176024795
-233.017961;1.813;0.147;0.147;1;1176069719
-233.003140;1.7149999;0.147;0.196;1;1176084540
-232.988375;1.7639999;0.098;0.147;1;1176099305
-232.977594;1.7639999;0.098;0.196;1;1176110086
-232.966199;1.7639999;0.098;0.147;1;1176121481
-232.953510;1.7639999;0.098;0.147;1;1176134170
-232.941018;1.813;0.147;0.196;1;1176146662
-232.930680;1.7639999;0.147;0.147;1;1176157000
-232.918635;1.7639999;0.196;0.244999984;1;1176169045
-232.903205;1.7639999;0.147;0.196;1;1176184475
-232.879536;1.7639999;0.147;0.147;1;1176208144
-232.867175;1.7639999;0.147;0.196;1;1176220505
-232.856584;1.7639999;0.147;0.196;0;1176231096
-232.841843;1.7639999;0.147;0.147;2;1176245837
-232.825350;1.7149999;0.196;0.147;1;1176262330
-232.812677;1.7639999;0.098;0.147;1;1176275003
-232.798703;1.813;0.098;0.196;1;1176288977
-232.787505;1.813;0.147;0.147;1;1176300175
-232.776383;1.7639999;0.147;0.196;1;1176311297
-232.749477;1.7639999;0.098;0.147;1;1176338203
-232.738653;1.7149999;0.098;0.196;1;1176349027
-232.715618;1.7149999;0.147;0.147;1;1176372062
-232.701374;1.7639999;0.147;0.147;1;1176386306
-232.688104;1.813;0.147;0.147;1;1176399576
-232.671349;1.7639999;0.147;0.147;1;1176416331
-232.641589;1.7639999;0.147;0.147;1;1176446091
-232.627575;1.7639999;0.147;0.196;1;1176460105
-232.584017;1.7639999;0.147;0.196;1;1176503663
-232.568435;1.813;0.196;0.196;1;1176519245
-232.544862;1.7639999;0.147;0.147;1;1176542818
-232.531366;1.7639999;0.147;0.147;1;1176556314
-232.511782;1.7149999;0.147;0.196;1;1176575898
-232.499401;1.7149999;0.147;0.147;1;1176588279
-232.476903;1.7639999;0.147;0.147;1;1176610777
-232.465462;1.7639999;0.098;0.147;1;1176622218
-232.450837;1.813;0.147;0.196;1;1176636843
-232.432906;1.7149999;0.098;0.196;1;1176654774
-232.411585;1.7639999;0.147;0.147;1;1176676095
-232.400520;1.813;0.147;0.147;1;1176687160
-232.388390;1.7639999;0.147;0.196;1;1176699290
-232.377597;1.7639999;0.098;0.147;1;1176710083
-232.363825;1.813;0.098;0.196;1;1176723855
-232.348959;1.7639999;0.147;0.147;1;1176738721
-232.337990;1.7639999;0.147;0.244999984;1;1176749690
-232.326669;1.7149999;0.147;0.196;1;1176761011
-232.315705;1.7149999;0.147;0.196;1;1176771975
-232.302766;1.7149999;0.147;0.196;1;1176784914
-232.277913;1.7639999;0.147;0.147;1;1176809767
-232.265091;1.7639999;0.147;0.196;1;1176822589
-232.250832;1.7639999;0.098;0.147;1;1176836848
-232.236737;1.7639999;0.147;0.244999984;1;1176850943
-232.214902;1.7639999;0.147;0.196;1;1176872778
-232.202539;1.7149999;0.147;0.147;1;1176885141
-232.180056;1.7639999;0.147;0.147;1;1176907624
-232.143973;1.7149999;0.147;0.196;1;1176943707
-232.122008;1.7149999;0.196;0.196;1;1176965672
-232.103554;1.7639999;0.147;0.196;1;1176984126
-232.078878;1.7639999;0.098;0.147;1;1177008802
-232.067572;1.7639999;0.098;0.147;1;1177020108
-232.037827;1.7639999;0.196;0.196;1;1177049853
-232.025340;1.7639999;0.098;0.196;1;1177062340
-232.006398;1.7149999;0.196;0.147;1;1177081282
-231.995758;1.7639999;0.147;0.196;1;1177091922
-231.983732;1.7639999;0.098;0.196;1;1177103948
-231.972869;1.7639999;0.147;0.147;1;1177114811
-231.956640;1.7639999;0.147;0.196;1;1177131040
-231.942650;1.813;0.147;0.196;1;1177145030
-231.930318;1.7639999;0.196;0.196;1;1177157362
-231.912873;1.7639999;0.098;0.244999984;1;1177174807
-231.901687;1.813;0.098;0.196;1;1177185993
-231.889854;1.7639999;0.147;0.196;1;1177197826
-231.878794;1.7639999;0.147;0.196;1;1177208886
-231.867640;1.7639999;0.147;0.196;1;1177220040
-231.852181;1.7639999;0.147;0.147;1;1177235499
-231.841472;1.7149999;0.098;0.196;1;1177246208
-231.810720;1.7639999;0.147;0.098;1;1177276960
-231.778861;1.7639999;0.098;0.147;1;1177308819
-231.767884;1.7639999;0.147;0.147;1;1177319796
-231.754364;1.813;0.098;0.196;1;1177333316
-231.732897;1.7639999;0.098;0.147;1;1177354783
-231.687094;1.7149999;0.147;0.196;1;1177400586
-231.672930;1.7149999;0.147;0.196;1;1177414750
-231.660703;1.813;0.147;0.196;1;1177426977
-231.633329;1.7639999;0.147;0.196;1;1177454351
-231.622946;1.7639999;0.098;0.196;1;1177464734
-231.610545;1.813;0.147;0.098;1;1177477135
-231.597697;1.7639999;0.196;0.196;1;1177489983
-231.579068;1.7639999;0.049;0.196;1;1177508612
-231.567886;1.813;0.098;0.196;1;1177519794
-231.556629;1.813;0.147;0.196;1;1177531051
-231.545643;1.813;0.098;0.147;1;1177542037
-231.531312;1.7149999;0.147;0.196;1;1177556368
-231.509605;1.813;0.098;0.147;1;1177578075
-231.476119;1.7639999;0.098;0.147;1;1177611561
-231.457021;1.7639999;0.098;0.196;1;1177630659
-231.445835;1.7639999;0.196;0.196;1;1177641845
-231.411634;1.813;0.147;0.147;1;1177676046
-231.400029;1.7639999;0.098;0.196;1;1177687651
-231.388635;1.7149999;0.147;0.147;1;1177699045
-231.374549;1.7639999;0.147;0.196;1;1177713131
-231.359453;1.7639999;0.147;0.244999984;1;1177728227
-231.346926;1.7149999;0.147;0.196;1;1177740754
-231.333451;1.813;0.147;0.147;1;1177754229
-231.312921;1.7639999;0.147;0.147;1;1177774759
-231.292812;1.7639999;0.147;0.147;1;1177794868
-231.256594;1.813;0.098;0.147;1;1177831086
-231.237366;1.7149999;0.147;0.147;1;1177850314
-231.226659;1.7639999;0.147;0.147;1;1177861021
-231.212287;1.7639999;0.147;0.196;1;1177875393
-231.201615;1.7639999;0.098;0.196;1;1177886065
-231.190833;1.7639999;0.147;0.147;1;1177896847
-231.179451;1.813;0.098;0.098;1;1177908229
-231.167050;1.7639999;0.147;0.196;1;1177920630
-231.154895;1.862;0.098;0.147;1;1177932785
-231.134924;1.7149999;0.147;0.196;1;1177952756
-231.113595;1.7639999;0.147;0.196;1;1177974085
-231.100716;1.7639999;0.147;0.196;1;1177986964
-231.078712;1.7639999;0.147;0.196;1;1178008968
-231.063662;1.7639999;0.196;0.147;1;1178024018
-231.049987;1.7149999;0.098;0.196;1;1178037693
-231.037548;1.7639999;0.147;0.147;1;1178050132
-231.022881;1.7639999;0.098;0.196;1;1178064799
-231.011313;1.7639999;0.098;0.196;1;1178076367
-230.999810;1.7639999;0.147;0.196;1;1178087870
-230.987713;1.7639999;0.147;0.147;1;1178099967
-230.976666;1.7639999;0.196;0.196;1;1178111014
-230.962668;1.7149999;0.147;0.196;1;1178125012
-230.951867;1.7639999;0.147;0.147;1;1178135813
-230.940830;1.7639999;0.098;0.147;1;1178146850
-230.929884;1.7639999;0.147;0.147;1;1178157796
-230.918904;1.7639999;0.147;0.196;1;1178168776
-230.892845;1.7149999;0.147;0.147;1;1178194835
-230.880355;1.7639999;0.098;0.244999984;1;1178207325
-230.861349;1.813;0.147;0.147;1;1178226331
-230.825928;1.7639999;0.147;0.147;1;1178261752
-230.809981;1.813;0.147;0.196;1;1178277699
-230.792636;1.7639999;0.098;0.147;1;1178295044
-230.779771;1.7639999;0.147;0.196;1;1178307909
-230.768782;1.7639999;0.147;0.244999984;1;1178318898
-230.755326;1.7639999;0.098;0.196;1;1178332354
-230.744290;1.7639999;0.147;0.196;1;1178343390
-230.731488;1.813;0.098;0.196;1;1178356192
-230.711834;1.813;0.147;0.196;1;1178375846
-230.697206;1.7149999;0.196;0.147;1;1178390474
-230.679775;1.7639999;0.098;0.196;1;1178407905
-230.648636;1.813;0.147;0.196;1;1178439044
-230.620608;1.7149999;0.098;0.147;1;1178467072
-230.586648;1.7149999;0.147;0.244999984;1;1178501032
-230.572790;1.7639999;0.147;0.196;1;1178514890
-230.544088;1.7639999;0.147;0.196;1;1178543592
-230.532785;1.813;0.098;0.196;1;1178554895
-230.513947;1.7639999;0.147;0.147;1;1178573733
-230.500800;1.7149999;0.147;0.147;1;1178586880
-230.484881;1.813;0.098;0.244999984;1;1178602799
-230.473907;1.7639999;0.098;0.196;1;1178613773
-230.461440;1.813;0.098;0.196;1;1178626240
-230.450960;1.7149999;0.098;0.098;1;1178636720
-230.433150;1.7639999;0.098;0.196;1;1178654530
-230.421132;1.813;0.147;0.147;1;1178666548
-230.403175;1.813;0.196;0.147;1;1178684505
-230.379786;1.7639999;0.147;0.147;1;1178707894
-230.366160;1.7149999;0.147;0.196;1;1178721520
-230.326253;1.7149999;0.098;0.196;1;1178761427
-230.312100;1.813;0.147;0.244999984;1;1178775580
-230.284733;1.7149999;0.147;0.244999984;1;1178802947
-230.271323;1.7149999;0.196;0.147;1;1178816357
-230.255738;1.813;0.147;0.147;1;1178831942
-230.244976;1.7639999;0.147;0.147;1;1178842704
-230.232951;1.7639999;0.147;0.196;1;1178854729
-230.220978;1.813;0.147;0.147;1;1178866702
-230.209711;1.7639999;0.147;0.147;1;1178877969
-230.197294;1.7639999;0.147;0.147;1;1178890386
-230.186329;1.7639999;0.147;0.196;1;1178901351
-230.173773;1.7639999;0.147;0.244999984;1;1178913907
-230.157101;1.7149999;0.196;0.098;1;1178930579
-230.144198;1.7639999;0.147;0.196;1;1178943482
-230.133707;1.7149999;0.098;0.196;1;1178953973
-230.116265;1.7639999;0.098;0.196;1;1178971415
-230.105031;1.813;0.147;0.196;1;1178982649
-230.083022;1.813;0.098;0.196;1;1179004658
-230.064733;1.7639999;0.147;0.196;1;1179022947
-230.052918;1.7149999;0.147;0.147;1;1179034762
-230.040470;1.813;0.147;0.196;1;1179047210
-230.022904;1.7639999;0.147;0.196;1;1179064776
-230.010722;1.7639999;0.098;0.196;1;1179076958
-229.999436;1.7639999;0.098;0.147;1;1179088244
-229.977924;1.7639999;0.147;0.196;1;1179109756
-229.963344;1.7149999;0.147;0.196;1;1179124336
-229.952845;1.7639999;0.098;0.196;1;1179134835
-229.941562;1.7149999;0.098;0.147;1;1179146118
-229.922892;1.813;0.147;0.147;1;1179164788
-229.875484;1.813;0.147;0.147;1;1179212196
-229.856692;1.7149999;0.098;0.147;1;1179230988
-229.843438;1.7639999;0.147;0.196;1;1179244242
-229.821004;1.7639999;0.147;0.196;1;1179266676
-229.809822;1.7149999;0.147;0.196;1;1179277858
-229.797493;1.7149999;0.147;0.147;1;1179290187
-229.786320;1.7639999;0.098;0.098;1;1179301360
-229.775181;1.7639999;0.098;0.196;1;1179312499
-229.747732;1.7149999;0.196;0.196;1;1179339948
-229.736960;1.7639999;0.147;0.196;1;1179350720
-229.711599;1.813;0.098;0.147;1;1179376081
-229.700801;1.862;0.098;0.196;1;1179386879
-229.688271;1.813;0.196;0.147;1;1179399409
-229.677699;1.7639999;0.147;0.196;1;1179409981
-229.664981;1.7639999;0.098;0.196;1;1179422699
-229.650427;1.813;0.098;0.196;1;1179437253
-229.638155;1.7639999;0.098;0.196;1;1179449525
-229.621778;1.7639999;0.098;0.098;1;1179465902
-229.608505;1.7149999;0.147;0.196;1;1179479175
-229.591635;1.813;0.147;0.196;1;1179496045
-229.579678;1.7639999;0.196;0.196;1;1179508002
-229.567972;1.7639999;0.147;0.147;1;1179519708
-229.556338;1.7639999;0.147;0.147;1;1179531342
-229.545628;1.7639999;0.147;0.147;1;1179542052
-229.532608;1.7639999;0.147;0.147;1;1179555072
-229.509853;1.813;0.098;0.147;1;1179577827
-229.473229;1.7639999;0.147;0.196;1;1179614451
-229.459310;1.7639999;0.147;0.196;1;1179628370
-229.446499;1.813;0.098;0.147;1;1179641181
-229.431738;1.7639999;0.147;0.196;1;1179655942
-229.401557;1.7149999;0.147;0.147;1;1179686123
-229.380250;1.813;0.147;0.147;1;1179707430
-229.367899;1.7149999;0.196;0.196;1;1179719781
-229.356068;1.7639999;0.147;0.244999984;1;1179731612
-229.340004;1.7639999;0.098;0.147;1;1179747676
-229.320175;1.7149999;0.147;0.147;1;1179767505
-229.308703;1.7639999;0.098;0.147;1;1179778977
-229.294434;1.7639999;0.098;0.147;1;1179793246
-229.281184;1.7639999;0.147;0.147;1;1179806496
-229.270727;1.7149999;0.098;0.147;1;1179816953
-229.257179;1.7639999;0.147;0.196;1;1179830501
-229.241639;1.7639999;0.147;0.098;1;1179846041
-229.228952;1.7149999;0.098;0.196;1;1179858728
-229.217093;1.7639999;0.098;0.196;1;1179870587
-229.205616;1.7639999;0.147;0.196;1;1179882064
-229.191697;1.7639999;0.196;0.147;1;1179895983
-229.179553;1.7639999;0.147;0.196;1;1179908127
-229.168111;1.7639999;0.098;0.196;1;1179919569
-229.154432;1.7639999;0.147;0.147;1;1179933248
-229.141092;1.7639999;0.147;0.196;1;1179946588
-229.129580;1.7639999;0.147;0.196;1;1179958100
-229.110742;1.7639999;0.098;0.196;1;1179976938
-229.100003;1.813;0.147;0.147;1;1179987677
-229.089783;1.7149999;0.147;0.196;1;1179997897
-229.078964;1.7639999;0.098;0.147;1;1180008716
-229.048854;1.7149999;0.147;0.147;1;1180038826
-229.031126;1.862;0.147;0.098;1;1180056554
-229.017397;1.7639999;0.147;0.244999984;1;1180070283
-229.005389;1.813;0.147;0.196;1;1180082291
-228.994654;1.7639999;0.147;0.244999984;1;1180093026
-228.982359;1.7639999;0.098;0.147;1;1180105321
-228.971669;1.7639999;0.098;0.196;1;1180116011
-228.949569;1.813;0.147;0.196;1;1180138111
-228.938989;1.7639999;0.098;0.196;1;1180148691
-228.927574;1.7639999;0.147;0.147;1;1180160106
-228.911763;1.7639999;0.098;0.147;1;1180175917
-228.899106;1.813;0.196;0.196;1;1180188574
-228.886865;1.813;0.147;0.196;1;1180200815
-228.875386;1.813;0.098;0.147;1;1180212294
-228.860697;1.7639999;0.098;0.196;1;1180226983
-228.850020;1.7639999;0.147;0.196;1;1180237660
-228.838940;1.7639999;0.098;0.147;1;1180248740
-228.828003;1.7639999;0.098;0.147;1;1180259677
-228.815113;1.7639999;0.098;0.147;1;1180272567
-228.800175;1.813;0.098;0.244999984;1;1180287505
-228.786941;1.7639999;0.147;0.196;1;1180300739
-228.772936;1.7639999;0.098;0.196;1;1180314744
-228.761927;1.813;0.147;0.196;1;1180325753
-228.745575;1.7149999;0.147;0.147;1;1180342105
-228.734834;1.7639999;0.196;0.196;1;1180352846
-228.722671;1.7149999;0.098;0.196;1;1180365009
-228.707137;1.7639999;0.147;0.196;1;1180380543
-228.681263;1.7639999;0.147;0.147;1;1180406417
-228.668902;1.7639999;0.098;0.147;1;1180418778
-228.628007;1.7149999;0.147;0.196;1;1180459673
-228.614214;1.7639999;0.098;0.196;1;1180473466
-228.595917;1.7639999;0.147;0.196;1;1180491763
-228.581972;1.7149999;0.196;0.098;1;1180505708
-228.565425;1.7639999;0.147;0.196;1;1180522255
-228.553972;1.7639999;0.147;0.147;1;1180533708
-228.540182;1.813;0.098;0.196;1;1180547498
-228.522916;1.7639999;0.147;0.147;1;1180564764
-228.508891;1.7639999;0.098;0.196;1;1180578789
-228.497653;1.7639999;0.147;0.196;1;1180590027
-228.486912;1.7639999;0.098;0.196;1;1180600768
-228.475854;1.7639999;0.098;0.196;1;1180611826
-228.461330;1.7639999;0.098;0.196;1;1180626350
-228.450622;1.7639999;0.147;0.147;1;1180637058
