t_s;heading;roll;pitch;ax;ay;az;uptime_us
-269.967384;342.5;7575;-17282;0.96363184;0.039768936;-0.248810768;1139120296
-269.944519;342.5;7575;-17282;0.9605727;0.02447319;-0.24677134;1139143161
-269.899106;342.5;7575;-17288;0.961592464;0.01631546;-0.232495316;1139188574
-269.877072;342.5;7575;-17288;0.96363184;0.021414042;-0.2386136;1139210608
-269.850370;342.5;7575;-17288;0.9575136;0.021414042;-0.24983048;1139237310
-269.828228;342.5;7575;-17288;0.96261216;0.029571772;-0.24677134;1139259452
-269.799832;342.5;7575;-17288;0.961592464;0.031611204;-0.248810768;1139287848
-269.778158;342.5;7575;-17288;0.9605727;0.028552056;-0.2447319;1139309522
-269.755813;342.5;7575;-17288;0.96261216;0.020394326;-0.2314756;1139331867
-269.732122;342.5;7575;-17288;0.96261216;0.015295744;-0.22841644;1139355558
-269.706759;342.5;7575;-17288;0.9605727;0.021414042;-0.248810768;1139380921
-269.671428;342.5;7575;-17288;0.961592464;0.030591488;-0.24371218;1139416252
-269.612418;342.5;7575;-17282;0.9646516;0.03263092;-0.2386136;1139475262
-269.539104;342.5625;7575;-17282;0.96363184;0.026512622;-0.24167276;1139548576
-269.500233;342.5625;7575;-17282;0.961592464;0.029571772;-0.24677134;1139587447
-269.478270;342.5625;7575;-17282;0.9585333;0.046906948;-0.25492908;1139609410
-269.456821;342.5;7575;-17288;0.96363184;0.028552056;-0.242692468;1139630859
-269.427123;342.5;7575;-17294;0.96261216;0.013256311;-0.23453474;1139660557
-269.399433;342.5;7575;-17307;0.96363184;0.010197163;-0.2314756;1139688247
-269.377871;342.5;7575;-17307;0.96363184;0.021414042;-0.2447319;1139709809
-269.354577;342.5;7575;-17307;0.959553;0.031611204;-0.25390936;1139733103
-269.330305;342.5;7575;-17307;0.961592464;0.03569007;-0.247791052;1139757375
-269.299602;342.5;7581;-17307;0.96363184;0.025492906;-0.24167276;1139788078
-269.269568;342.5;7581;-17307;0.9605727;0.0193746092;-0.24167276;1139818112
-269.247639;342.5;7581;-17307;0.9656713;0.021414042;-0.2386136;1139840041
-269.217858;342.5;7581;-17307;0.961592464;0.026512622;-0.2447319;1139869822
-269.190027;342.5;7581;-17307;0.96363184;0.028552056;-0.24371218;1139897653
-269.159472;342.5;7581;-17307;0.96261216;0.034670352;-0.24575162;1139928208
-269.107622;342.5;7581;-17307;0.96261216;0.021414042;-0.23351502;1139980058
-269.085885;342.5;7581;-17307;0.96363184;0.0193746092;-0.2386136;1140001795
-269.060137;342.5;7575;-17307;0.961592464;0.017335176;-0.24677134;1140027543
-269.038190;342.5;7575;-17307;0.961592464;0.033650636;-0.248810768;1140049490
-269.010262;342.5;7575;-17307;0.9605727;0.036709784;-0.25390936;1140077418
-268.986492;342.5;7575;-17307;0.96261216;0.029571772;-0.24167276;1140101188
-268.960209;342.5;7581;;557;307;4243;1140127471
-268.939098;342.4375;7581;-17319;0.9646516;0.020394326;-0.2386136;1140148582
-268.907769;342.4375;7581;-17319;0.961592464;0.021414042;-0.248810768;1140179911
-268.885608;342.4375;7581;-17319;0.96363184;0.025492906;-0.25186992;1140202072
-268.806244;342.4375;7581;-17319;0.96363184;0.021414042;-0.226377008;1140281436
-268.784014;342.4375;7581;-17319;0.96363184;0.0193746092;-0.24065304;1140303666
-268.728403;342.4375;7575;-17319;0.961592464;0.02447319;-0.247791052;1140359277
-268.700217;342.4375;7575;-17319;0.96261216;0.023453474;-0.24167276;1140387463
-268.655985;342.4375;7581;-17319;0.9656713;0.034670352;-0.242692468;1140431695
-268.619363;342.4375;7581;-17319;0.96261216;0.02753234;-0.24677134;1140468317
-268.585006;342.4375;7581;-17319;0.96261216;0.018354892;-0.24065304;1140502674
-268.559831;342.4375;7581;;1367;481;4241;1140527849
-268.508114;342.375;7581;-17319;0.966691;0.03569007;-0.24677134;1140579566
-268.484365;342.375;7581;-17319;0.9605727;0.033650636;-0.2508502;1140603315
-268.460080;342.375;7581;-17332;0.9605727;0.023453474;-0.25390936;1140627600
-268.433930;342.375;7581;-17332;0.96363184;0.01631546;-0.23657418;1140653750
-268.409501;342.375;7581;-17332;0.961592464;0.025492906;-0.24167276;1140678179
-268.388169;342.375;7581;-17332;0.9646516;0.033650636;-0.242692468;1140699511
-268.364289;342.375;7581;-17332;0.9605727;0.031611204;-0.23963332;1140723391
-268.339658;342.375;7581;-17332;0.96363184;0.029571772;-0.24167276;1140748022
-268.309484;342.375;7581;-17332;0.9605727;0.0193746092;-0.2447319;1140778196
-268.287405;342.375;7581;-17332;0.961592464;0.0193746092;-0.24065304;1140800275
-268.264874;342.375;7581;-17332;0.961592464;0.02753234;-0.24575162;1140822806
-268.209203;342.375;7581;-17332;0.96261216;0.026512622;-0.23453474;1140878477
-268.185174;342.375;7581;-17332;0.959553;0.02753234;-0.248810768;1140902506
-268.159931;342.375;7581;-17338;0.96261216;0.026512622;-0.24983048;1140927749
-268.137486;342.375;7581;-17338;0.9605727;0.031611204;-0.24983048;1140950194
-268.111877;342.375;7581;-17338;0.959553;0.033650636;-0.24371218;1140975803
-268.064007;342.375;7581;-17332;0.9605727;0.02447319;-0.23963332;1141023673
-268.039528;342.3125;7581;-17338;0.9605727;0.028552056;-0.2508502;1141048152
-268.009472;342.3125;7581;-17338;0.96261216;0.025492906;-0.25492908;1141078208
-267.987083;342.3125;7581;-17338;0.961592464;0.028552056;-0.25492908;1141100597
-267.927412;342.3125;7581;-17332;0.96363184;0.034670352;-0.237593884;1141160268
-267.899508;342.375;7581;-17338;0.96363184;0.021414042;-0.23963332;1141188172
-267.877006;342.375;7581;-17338;0.961592464;0.018354892;-0.2447319;1141210674
-267.850141;342.375;7581;-17338;0.959553;0.017335176;-0.2508502;1141237539
-267.798995;342.375;7581;-17332;0.9656713;0.034670352;-0.23045588;1141288685
-267.757320;342.375;7581;-17338;0.96261216;0.025492906;-0.237593884;1141330360
-267.719723;342.375;7581;-17338;0.961592464;0.018354892;-0.24677134;1141367957
-267.690165;342.3125;7581;-17338;0.96363184;0.015295744;-0.24065304;1141397515
-267.667503;342.3125;7581;-17344;0.96363184;0.028552056;-0.23963332;1141420177
-267.640140;342.3125;7581;-17344;0.96261216;0.030591488;-0.23963332;1141447540
-267.618172;342.3125;7581;-17344;0.9585333;0.04588723;-0.25492908;1141469508
-267.590105;342.3125;7581;-17350;0.9605727;0.034670352;-0.24983048;1141497575
-267.568040;342.3125;7581;-17357;0.96261216;0.015295744;-0.25390936;1141519640
-267.539857;342.3125;7581;-17357;0.96261216;0.015295744;-0.2508502;1141547823
-267.509580;342.3125;7581;-17357;0.9646516;0.023453474;-0.23657418;1141578100
-267.488052;342.25;7581;-17357;0.96261216;0.033650636;-0.2386136;1141599628
-267.460549;342.3125;7581;-17357;0.96363184;0.02753234;-0.23453474;1141627131
-267.426669;342.25;7581;-17363;0.9585333;0.030591488;-0.25390936;1141661011
-267.369788;342.25;7581;-17369;0.959553;0.013256311;-0.248810768;1141717892
-267.348007;342.25;7587;-17369;0.96261216;0.02753234;-0.232495316;1141739673
-267.317621;342.25;7587;-17369;0.96363184;0.0377295;-0.23045588;1141770059
-267.269372;342.25;7587;-17369;0.9605727;0.026512622;-0.25390936;1141818308
-267.245335;342.25;7587;-17369;0.961592464;0.017335176;-0.24575162;1141842345
-267.209594;342.25;7587;-17369;0.96261216;0.02753234;-0.24167276;1141878086
-267.187257;342.25;7587;-17369;0.9656713;0.036709784;-0.232495316;1141900423
-267.137930;342.25;7581;-17369;0.9605727;0.023453474;-0.242692468;1141949750
-267.111060;342.25;7581;-17369;0.9605727;0.020394326;-0.25288964;1141976620
-267.062475;342.25;7581;-17369;0.96363184;0.031611204;-0.248810768;1142025205
-267.039640;342.25;7581;-17369;0.9646516;0.031611204;-0.23555446;1142048040
-267.009796;342.25;7581;-17369;0.961592464;0.02447319;-0.23351502;1142077884
-266.988016;342.25;7581;-17369;0.959553;0.02753234;-0.24677134;1142099664
-266.939128;342.25;7581;-17369;0.9605727;0.029571772;-0.25288964;1142148552
-266.918063;342.25;7581;-17369;0.961592464;0.028552056;-0.24677134;1142169617
-266.885870;342.25;7581;-17369;0.96363184;0.020394326;-0.23045588;1142201810
-266.837767;342.25;7581;-17369;0.96261216;0.033650636;-0.25390936;1142249913
-266.807846;342.25;7581;-17369;0.961592464;0.03263092;-0.25288964;1142279834
-266.783052;342.25;7581;-17369;0.96261216;0.02447319;-0.24371218;1142304628
-266.758820;342.25;7581;-17369;0.961592464;0.021414042;-0.23657418;1142328860
-266.736128;342.25;7581;-17369;0.96261216;0.023453474;-0.23963332;1142351552
-266.709102;342.25;7581;-17369;0.9605727;0.026512622;-0.24677134;1142378578
-266.685551;342.25;7581;-17369;0.961592464;0.03263092;-0.24677134;1142402129
-266.659990;342.25;7581;;1083;428;4243;1142427690
-266.636551;342.25;7581;-17369;0.95649384;0.025492906;-0.25186992;1142451129
-266.609618;342.25;7581;-17369;0.961592464;0.03263092;-0.2508502;1142478062
-266.586432;342.25;7581;-17369;0.9646516;0.025492906;-0.2386136;1142501248
-266.499912;342.25;7581;-17369;0.96261216;0.031611204;-0.25900792;1142587768
-266.477997;342.25;7587;-17369;0.961592464;0.03263092;-0.2508502;1142609683
-266.421633;342.25;7587;-17375;0.96363184;0.0193746092;-0.23453474;1142666047
-266.376616;342.3125;7587;-17369;0.96363184;0.025492906;-0.23963332;1142711064
-266.349440;342.3125;7587;-17369;0.9605727;0.02753234;-0.25186992;1142738240
-266.319425;342.3125;7587;-17369;0.9605727;0.020394326;-0.24371218;1142768255
-266.289760;342.25;7587;-17375;0.96261216;0.026512622;-0.24371218;1142797920
-266.249839;342.25;7587;-17375;0.96261216;0.025492906;-0.24167276;1142837841
-266.218778;342.25;7581;-17375;0.96363184;0.020394326;-0.2447319;1142868902
-266.196162;342.25;7581;-17375;0.9605727;0.022433758;-0.2579882;1142891518
-266.170248;342.25;7581;-17375;0.959553;0.029571772;-0.2579882;1142917432
-266.148395;342.25;7581;-17375;0.96261216;0.03569007;-0.25390936;1142939285
-266.100312;342.25;7581;-17375;0.961592464;0.029571772;-0.23351502;1142987368
-266.078896;342.25;7581;-17375;0.96261216;0.026512622;-0.24575162;1143008784
-266.027749;342.25;7581;-17375;0.959553;0.028552056;-0.26512624;1143059931
-266.001514;342.25;7587;-17375;0.961592464;0.03263092;-0.24575162;1143086166
-265.959218;342.25;7587;-17382;0.96261216;0.031611204;-0.23351502;1143128462
-265.928179;342.25;7587;-17382;0.96261216;0.014276028;-0.232495316;1143159501
-265.868421;342.25;7587;-17382;0.961592464;0.02753234;-0.25492908;1143219259
-265.839416;342.25;7587;-17382;0.96363184;0.029571772;-0.2386136;1143248264
-265.810303;342.25;7587;-17382;0.9646516;0.025492906;-0.23045588;1143277377
-265.729620;342.25;7587;-17382;0.9575136;0.023453474;-0.2569685;1143358060
-265.699912;342.25;7587;-17382;0.96363184;0.029571772;-0.247791052;1143387768
-265.677691;342.3125;7587;-17382;0.961592464;0.028552056;-0.23555446;1143409989
-265.650397;342.3125;7587;-17382;0.96363184;0.03569007;-0.23963332;1143437283
-265.628832;342.3125;7587;-17382;0.9585333;0.023453474;-0.24677134;1143458848
-265.607028;342.3125;7587;-17382;0.95649384;0.0193746092;-0.25492908;1143480652
-265.584483;342.3125;7587;-17382;0.9605727;0.01631546;-0.24983048;1143503197
-265.479845;342.3125;7587;-17388;0.9646516;0.026512622;-0.2386136;1143607835
-265.450023;342.3125;7587;-17388;0.9575136;0.023453474;-0.25186992;1143637657
-265.428196;342.3125;7587;-17382;0.9605727;0.023453474;-0.2569685;1143659484
-265.400307;342.3125;7587;-17382;0.96261216;0.026512622;-0.25186992;1143687373
-265.376989;342.3125;7587;-17382;0.9646516;0.028552056;-0.23657418;1143710691
-265.350201;342.3125;7587;-17382;0.96261216;0.0193746092;-0.23045588;1143737479
-265.319545;342.3125;7587;-17382;0.959553;0.023453474;-0.2447319;1143768135
-265.289682;342.3125;7587;-17382;0.961592464;0.022433758;-0.25186992;1143797998
-265.263306;342.3125;7587;-17382;0.9605727;0.034670352;-0.25390936;1143824374
-265.239479;342.3125;7587;-17382;0.961592464;0.02447319;-0.237593884;1143848201
-265.217980;342.3125;7587;-17382;0.9646516;0.034670352;-0.242692468;1143869700
-265.189996;342.375;7587;-17375;0.9656713;0.031611204;-0.24065304;1143897684
-265.168072;342.375;7587;-17375;0.961592464;0.015295744;-0.23555446;1143919608
-265.140040;342.375;7587;-17375;0.959553;0.018354892;-0.24677134;1143947640
-265.117069;342.375;7587;-17375;0.9656713;0.028552056;-0.24371218;1143970611
-265.089977;342.375;7587;-17375;0.96363184;0.039768936;-0.24371218;1143997703
-265.037356;342.375;7587;-17382;0.96363184;0.026512622;-0.23045588;1144050324
-265.010067;342.3125;7587;-17382;0.9646516;0.025492906;-0.24065304;1144077613
-264.986196;342.3125;7587;-17382;0.959553;0.014276028;-0.25288964;1144101484
-264.939195;342.3125;7587;-17382;0.96363184;0.0377295;-0.25186992;1144148485
-264.910553;342.3125;7587;-17382;0.959553;0.025492906;-0.24065304;1144177127
-264.888654;342.3125;7587;-17382;0.9605727;0.026512622;-0.23555446;1144199026
-264.866521;342.3125;7587;-17388;0.966691;0.020394326;-0.2386136;1144221159
-264.840096;342.3125;7587;-17388;0.959553;0.014276028;-0.248810768;1144247584
-264.818178;342.3125;7587;-17388;0.95649384;0.022433758;-0.25900792;1144269502
-264.789396;342.3125;7587;-17388;0.9585333;0.036709784;-0.2569685;1144298284
-264.760313;342.3125;7587;-1;0.9646516;0.03263092;-0.23555446;1144327367
-264.699838;342.375;7593;-17382;0.96261216;0.018354892;-0.23657418;1144387842
-264.677607;342.375;7593;-17382;0.9585333;0.010197163;-0.25390936;1144410073
-264.655162;342.375;7593;-17382;0.961592464;0.02753234;-0.25492908;1144432518
-264.589427;342.375;7593;-17382;0.96261216;0.0377295;-0.226377008;1144498253
-264.563359;342.375;7593;-17382;0.9646516;0.028552056;-0.232495316;1144524321
-264.539704;342.3125;7593;-17388;0.959553;0.014276028;-0.2508502;1144547976
-264.518222;342.3125;7587;-17388;0.9575136;0.01631546;-0.2569685;1144569458
-264.486919;342.3125;7587;-17394;0.96363184;0.02447319;-0.24167276;1144600761
-264.458683;342.25;7587;-17394;0.96363184;0.041808368;-0.237593884;1144628997
-264.406783;342.25;7587;-17400;0.9585333;0.025492906;-0.25288964;1144680897
-264.377829;342.25;7587;-17400;0.9575136;0.015295744;-0.25492908;1144709851
-264.350255;342.25;7587;-17400;0.9605727;0.013256311;-0.24983048;1144737425
-264.320074;342.3125;7587;-17400;0.96363184;0.034670352;-0.23453474;1144767606
-264.298238;342.25;7587;-17400;0.9656713;0.03263092;-0.2386136;1144789442
-264.269315;342.3125;7587;-17400;0.9605727;0.03263092;-0.247791052;1144818365
-264.247761;342.25;7587;-17407;0.9575136;0.015295744;-0.248810768;1144839919
-264.220204;342.25;7587;-17413;0.9646516;0.01631546;-0.2508502;1144867476
-264.169422;342.25;7593;-17413;0.96261216;0.030591488;-0.2447319;1144918258
-264.140010;342.25;7593;-17413;0.9585333;0.031611204;-0.23555446;1144947670
-264.118021;342.3125;7593;-17407;0.961592464;0.02447319;-0.237593884;1144969659
-264.089805;342.3125;7593;-17407;0.9575136;0.020394326;-0.242692468;1144997875
-264.067737;342.3125;7587;-17407;0.96261216;0.026512622;-0.2569685;1145019943
-264.039903;342.3125;7587;-17407;0.9605727;0.01631546;-0.25492908;1145047777
-264.009389;342.3125;7593;-17407;0.9656713;0.030591488;-0.23657418;1145078291
-263.987842;342.3125;7593;-17407;0.966691;0.036709784;-0.23453474;1145099838
-263.959012;342.3125;7593;-17407;0.961592464;0.029571772;-0.24575162;1145128668
-263.907522;342.3125;7587;-17407;0.9605727;0.02753234;-0.25594878;1145180158
-263.885181;342.3125;7587;-17407;0.961592464;0.021414042;-0.24983048;1145202499
-263.860098;342.3125;7593;-17407;0.96261216;0.022433758;-0.23963332;1145227582
-263.838063;342.3125;7593;-17407;0.96363184;0.026512622;-0.232495316;1145249617
-263.811246;342.3125;7593;-17407;0.961592464;0.030591488;-0.24167276;1145276434
-263.789227;342.3125;7593;-17407;0.96363184;0.034670352;-0.247791052;1145298453
-263.766893;342.3125;7593;-17407;0.9605727;0.02447319;-0.24983048;1145320787
-263.729735;342.3125;7593;-17407;0.959553;0.018354892;-0.247791052;1145357945
-263.699440;342.3125;7593;-17407;0.961592464;0.02447319;-0.23453474;1145388240
-263.671077;342.3125;7593;-17407;0.96363184;0.031611204;-0.23045588;1145416603
-263.648880;342.3125;7593;-17407;0.96261216;0.02447319;-0.2386136;1145438800
-263.616771;342.3125;7593;-17407;0.96261216;0.029571772;-0.2508502;1145470909
-263.590013;342.3125;7593;-17407;0.961592464;0.026512622;-0.24983048;1145497667
-263.559589;342.3125;7593;-17407;0.96363184;0.021414042;-0.24575162;1145528091
-263.536937;342.3125;7593;-17407;0.96363184;0.02753234;-0.24167276;1145550743
-263.510158;342.3125;7593;-17407;0.96363184;0.026512622;-0.24065304;1145577522
-263.479287;342.3125;7593;-17407;0.9646516;0.025492906;-0.242692468;1145608393
-263.450169;342.3125;7593;-17407;0.96261216;0.02753234;-0.24983048;1145637511
-263.407081;342.25;7593;-17407;0.9575136;0.033650636;-0.2569685;1145680599
-263.384184;342.25;7593;-17407;0.96261216;0.02753234;-0.23657418;1145703496
-263.359969;342.25;7593;;957;402;4240;1145727711
-263.337733;342.25;7593;-17407;0.96261216;0.018354892;-0.24371218;1145749947
-263.309183;342.3125;7593;-17407;0.961592464;0.0377295;-0.2447319;1145778497
-263.260005;342.25;7593;-17413;0.9605727;0.020394326;-0.24371218;1145827675
-263.226839;342.3125;7593;-17413;0.96363184;0.025492906;-0.24065304;1145860841
-263.200189;342.3125;7593;-17413;0.96261216;0.020394326;-0.2314756;1145887491
-263.177691;342.3125;7593;-17413;0.96363184;0.02753234;-0.24065304;1145909989
-263.150999;342.3125;7593;-17413;0.9585333;0.042828084;-0.24983048;1145936681
-263.128859;342.3125;7593;-17413;0.96261216;0.029571772;-0.24167276;1145958821
-263.106888;342.3125;7593;-17413;0.961592464;0.018354892;-0.24983048;1145980792
-263.085057;342.3125;7593;-17413;0.959553;0.01631546;-0.2447319;1146002623
-263.059844;342.3125;7593;-17413;0.96363184;0.02447319;-0.24167276;1146027836
-263.038190;342.3125;7593;-17413;0.9646516;0.021414042;-0.22433758;1146049490
-263.016449;342.3125;7593;-17413;0.96261216;0.023453474;-0.23045588;1146071231
-262.989962;342.25;7587;-17413;0.96363184;0.053025244;-0.25594878;1146097718
-262.967829;342.25;7587;-17419;0.96261216;0.02753234;-0.2569685;1146119851
-262.939825;342.3125;7587;-17425;0.9575136;0.013256311;-0.26716566;1146147855
-262.914684;342.3125;7587;-17432;0.96363184;0.010197163;-0.237593884;1146172996
-262.888839;342.3125;7593;-17432;0.9646516;0.021414042;-0.23351502;1146198841
-262.866345;342.25;7587;-17432;0.961592464;0.033650636;-0.2386136;1146221335
-262.819900;342.25;7587;-17425;0.9605727;0.03569007;-0.25594878;1146267780
-262.788519;342.3125;7587;-17425;0.96261216;0.015295744;-0.242692468;1146299161
-262.760314;342.3125;7587;;1228;456;4244;1146327366
-262.738599;342.25;7587;-17432;0.959553;0.01631546;-0.23555446;1146349081
-262.716245;342.25;7587;-17432;0.96261216;0.02447319;-0.2386136;1146371435
-262.689629;342.25;7587;-17432;0.966691;0.03569007;-0.24677134;1146398051
-262.667783;342.25;7587;-17432;0.959553;0.036709784;-0.24983048;1146419897
-262.645654;342.25;7587;-17432;0.961592464;0.02753234;-0.248810768;1146442026
-262.619932;342.25;7587;-17438;0.96363184;0.015295744;-0.24167276;1146467748
-262.598001;342.25;7587;-17438;0.96363184;0.017335176;-0.23555446;1146489679
-262.574047;342.25;7587;-17438;0.961592464;0.023453474;-0.23555446;1146513633
-262.549905;342.25;7587;-17438;0.96261216;0.029571772;-0.23657418;1146537775
-262.525728;342.25;7587;;1178;446;4249;1146561952
-262.498798;342.25;7587;-17432;0.96261216;0.031611204;-0.25288964;1146588882
-262.475597;342.25;7587;-17432;0.961592464;0.023453474;-0.242692468;1146612083
-262.449597;342.25;7587;-17438;0.96261216;0.0193746092;-0.23963332;1146638083
-262.409325;342.25;7587;-17438;0.9656713;0.026512622;-0.23963332;1146678355
-262.385903;342.25;7587;-17438;0.9585333;0.034670352;-0.25186992;1146701777
-262.338138;342.25;7581;-17438;0.961592464;0.0193746092;-0.25288964;1146749542
-262.309029;342.25;7581;-17444;0.961592464;0.018354892;-0.24677134;1146778651
-262.284520;342.25;7581;-17444;0.96261216;0.023453474;-0.23963332;1146803160
-262.206488;342.25;7581;-17444;0.961592464;0.031611204;-0.248810768;1146881192
-262.184935;342.25;7581;-17438;0.9605727;0.028552056;-0.25594878;1146902745
-262.137950;342.25;7581;-17438;0.959553;0.0193746092;-0.24575162;1146949730
-262.113613;342.25;7581;-17438;0.959553;0.0193746092;-0.242692468;1146974067
-262.088703;342.25;7587;-17438;0.9646516;0.030591488;-0.22331786;1146998977
-262.066117;342.25;7587;-17438;0.9605727;0.030591488;-0.2314756;1147021563
-262.040093;342.3125;7581;-17438;0.9646516;0.033650636;-0.242692468;1147047587
-262.008208;342.3125;7581;-17432;0.9605727;0.026512622;-0.2630868;1147079472
-261.969821;342.3125;7581;-17432;0.96261216;0.02447319;-0.26104736;1147117859
-261.936373;342.25;7581;-17432;0.96363184;0.0377295;-0.2253573;1147151307
-261.909329;342.3125;7581;-17432;0.9544544;0.028552056;-0.24065304;1147178351
-261.886748;342.3125;7581;-17438;0.9585333;0.021414042;-0.25390936;1147200932
-261.839241;342.3125;7581;-17438;0.9605727;0.01631546;-0.25186992;1147248439
-261.818057;342.25;7581;-17438;0.959553;0.01631546;-0.24575162;1147269623
-261.790191;342.25;7587;-17438;0.968730432;0.031611204;-0.23045588;1147297489
-261.728972;342.25;7581;;1302;469;4247;1147358708
-261.704936;342.25;7581;-17438;0.9605727;0.02447319;-0.2569685;1147382744
-261.683150;342.25;7581;-17438;0.959553;0.03263092;-0.26206708;1147404530
-261.659589;342.25;7581;;1292;467;4244;1147428091
-261.636364;342.25;7587;-17438;0.966691;0.02447319;-0.21821928;1147451316
-261.599946;342.25;7581;-17438;0.96363184;0.018354892;-0.22229814;1147487734
-261.577680;342.25;7581;-17444;0.961592464;0.020394326;-0.25492908;1147510000
-261.507696;342.25;7581;-17444;0.96363184;0.03569007;-0.242692468;1147579984
-261.484416;342.25;7581;-17450;0.9656713;0.031611204;-0.221278432;1147603264
-261.438114;342.1875;7581;-17457;0.959553;0.018354892;-0.25594878;1147649566
-261.409021;342.1875;7581;-17457;0.9544544;0.0193746092;-0.27124452;1147678659
-261.385765;342.1875;7581;-17457;0.9585333;0.036709784;-0.26818538;1147701915
-261.308010;342.1875;7587;-17463;0.9646516;0.01631546;-0.2314756;1147779670
-261.285172;342.1875;7581;-17463;0.96261216;0.009177446;-0.248810768;1147802508
-261.260150;342.1875;7581;;1477;500;4244;1147827530
-261.235561;342.1875;7581;-17457;0.9605727;0.029571772;-0.26104736;1147852119
-261.199869;342.1875;7587;-17457;0.96363184;0.036709784;-0.23351502;1147887811
-261.177267;342.1875;7587;-17457;0.9656713;0.03263092;-0.221278432;1147910413
-261.109672;342.1875;7581;-17457;0.95649384;0.020394326;-0.2579882;1147978008
-261.087762;342.1875;7581;-17457;0.9605727;0.028552056;-0.2569685;1147999918
-261.038267;342.1875;7587;-17457;0.961592464;0.034670352;-0.2386136;1148049413
-261.009471;342.1875;7587;-17457;0.96363184;0.025492906;-0.22433758;1148078209
-260.987722;342.1875;7581;-17463;0.961592464;0.020394326;-0.24065304;1148099958
-260.961796;342.1875;7581;-17463;0.9605727;0.015295744;-0.2447319;1148125884
-260.936448;342.1875;7581;-17463;0.9585333;0.025492906;-0.26716566;1148151232
-260.910296;342.1875;7575;-17463;0.95547416;0.031611204;-0.2753234;1148177384
-260.867114;342.1875;7581;-17463;0.9656713;0.031611204;-0.22331786;1148220566
-260.841025;342.1875;7581;-17463;0.9646516;0.020394326;-0.21821928;1148246655
-260.809403;342.1875;7581;-17469;0.9585333;0.013256311;-0.24983048;1148278277
-260.787424;342.1875;7575;-17469;0.959553;0.018354892;-0.2641065;1148300256
-260.760457;342.1875;7575;-17469;0.9575136;0.03263092;-0.26614594;1148327223
-260.708111;342.25;7581;-17463;0.96363184;0.026512622;-0.22025872;1148379569
-260.639858;342.1875;7581;-17463;0.9585333;0.022433758;-0.25288964;1148447822
-260.618126;342.1875;7575;-17463;0.959553;0.031611204;-0.26512624;1148469554
-260.587293;342.25;7575;-17457;0.96261216;0.041808368;-0.25288964;1148500387
-260.559988;342.25;7581;;1515;506;4244;1148527692
-260.499973;342.25;7581;-17463;0.961592464;0.014276028;-0.2386136;1148587707
-260.477905;342.25;7575;-17463;0.95649384;0.018354892;-0.26104736;1148609775
-260.449915;342.25;7575;-17463;0.96261216;0.029571772;-0.2630868;1148637765
-260.406194;342.25;7581;-17457;0.96363184;0.034670352;-0.2314756;1148681486
-260.385086;342.25;7581;-17463;0.9646516;0.026512622;-0.22841644;1148702594
-260.337946;342.25;7575;-17469;0.9605727;0.017335176;-0.25492908;1148749734
-260.307845;342.25;7575;-17469;0.959553;0.02447319;-0.2579882;1148779835
-260.285176;342.1875;7575;-17469;0.9605727;0.031611204;-0.247791052;1148802504
-260.231320;342.25;7575;-17463;0.966691;0.02447319;-0.23045588;1148856360
-260.199484;342.25;7575;-17463;0.959553;0.015295744;-0.24677134;1148888196
-260.177706;342.25;7575;-17463;0.959553;0.018354892;-0.25390936;1148909974
-260.156002;342.25;7575;-17463;0.9605727;0.02447319;-0.2569685;1148931678
-260.133033;342.25;7575;-17463;0.96363184;0.03263092;-0.248810768;1148954647
-260.109810;342.25;7575;-17457;0.96363184;0.04588723;-0.24167276;1148977870
-260.087589;342.25;7575;-17450;0.96363184;0.041808368;-0.23351502;1149000091
-260.065039;342.25;7575;-17457;0.96261216;0.022433758;-0.2386136;1149022641
-260.039888;342.25;7575;-17463;0.961592464;0.015295744;-0.248810768;1149047792
-260.018042;342.25;7575;-17463;0.961592464;0.00815773;-0.25186992;1149069638
-259.989828;342.25;7575;-17463;0.959553;0.020394326;-0.2508502;1149097852
-259.959776;342.25;7575;-17463;0.9646516;0.042828084;-0.24167276;1149127904
-259.929554;342.25;7575;-17463;0.96363184;0.031611204;-0.237593884;1149158126
-259.899229;342.25;7575;-17469;0.96261216;0.023453474;-0.24371218;1149188451
-259.872411;342.25;7575;-17475;0.9605727;0.00815773;-0.2508502;1149215269
-259.805711;342.25;7575;-17469;0.9656713;0.036709784;-0.24167276;1149281969
-259.780317;342.25;7575;-17469;0.96261216;0.0438478;-0.24167276;1149307363
-259.707414;342.3125;7575;-17463;0.95649384;0.01631546;-0.25492908;1149380266
-259.684016;342.25;7575;-17469;0.961592464;0.022433758;-0.24371218;1149403664
-259.635490;342.25;7575;-17463;0.96363184;0.04078865;-0.237593884;1149452190
-259.608576;342.25;7575;-17463;0.959553;0.03569007;-0.247791052;1149479104
-259.577703;342.25;7575;-17463;0.959553;0.023453474;-0.24983048;1149509977
-259.528562;342.25;7575;-17463;0.96363184;0.02447319;-0.23963332;1149559118
-259.506554;342.25;7575;-17463;0.96363184;0.031611204;-0.23963332;1149581126
-259.483728;342.25;7575;-17463;0.959553;0.036709784;-0.24677134;1149603952
-259.459843;342.25;7575;;1272;464;4245;1149627837
-259.437882;342.25;7575;-17469;0.959553;0.018354892;-0.247791052;1149649798
-259.396884;342.25;7575;-17469;0.96261216;0.018354892;-0.24371218;1149690796
-259.370103;342.25;7575;-17469;0.961592464;0.0193746092;-0.23963332;1149717577
-259.348061;342.25;7575;-17469;0.96363184;0.033650636;-0.242692468;1149739619
-259.322797;342.25;7575;-17469;0.9646516;0.033650636;-0.23963332;1149764883
-259.298352;342.25;7575;-17469;0.9605727;0.028552056;-0.2508502;1149789328
-259.277005;342.25;7575;-17469;0.959553;0.02447319;-0.248810768;1149810675
-259.228967;342.25;7575;-17469;0.96363184;0.025492906;-0.23657418;1149858713
-259.200418;342.25;7575;-17469;0.96363184;0.031611204;-0.23555446;1149887262
-259.177699;342.25;7575;-17469;0.96261216;0.034670352;-0.24983048;1149909981
-259.150212;342.25;7575;-17469;0.959553;0.030591488;-0.25900792;1149937468
-259.128624;342.25;7575;-17469;0.9585333;0.025492906;-0.25594878;1149959056
-259.106826;342.25;7575;-17469;0.961592464;0.02753234;-0.2447319;1149980854
-259.084503;342.25;7575;-17469;0.9605727;0.031611204;-0.23555446;1150003177
-259.060075;342.25;7575;-17469;0.96363184;0.02447319;-0.23453474;1150027605
-259.037378;342.25;7575;-17469;0.9646516;0.029571772;-0.242692468;1150050302
-259.000000;342.25;7575;-17469;0.9585333;0.028552056;-0.25288964;1150087680
-258.970082;342.25;7575;-17475;0.959553;0.020394326;-0.247791052;1150117598
-258.947548;342.25;7575;-17475;0.96261216;0.025492906;-0.24575162;1150140132
-258.900260;342.25;7575;-17475;0.96363184;0.025492906;-0.23351502;1150187420
-258.877741;342.25;7575;-17475;0.961592464;0.030591488;-0.24371218;1150209939
-258.851694;342.25;7575;-17475;0.961592464;0.028552056;-0.2447319;1150235986
-258.819848;342.25;7575;-17475;0.959553;0.0193746092;-0.247791052;1150267832
-258.797029;342.25;7575;-17475;0.9585333;0.023453474;-0.24167276;1150290651
-258.770289;342.25;7575;-17475;0.961592464;0.030591488;-0.23963332;1150317391
-258.748457;342.25;7575;-17475;0.96363184;0.026512622;-0.23453474;1150339223
-258.719875;342.25;7575;-17475;0.9585333;0.02753234;-0.23963332;1150367805
-258.697837;342.25;7575;-17475;0.96363184;0.02753234;-0.247791052;1150389843
-258.673610;342.25;7575;-17475;0.96261216;0.02753234;-0.25186992;1150414070
-258.604519;342.25;7575;-17475;0.96363184;0.025492906;-0.23351502;1150483161
-258.559330;342.25;7575;-17475;0.96261216;0.028552056;-0.247791052;1150528350
-258.536215;342.25;7575;-17475;0.961592464;0.026512622;-0.25288964;1150551465
-258.510328;342.25;7575;-17475;0.961592464;0.025492906;-0.24983048;1150577352
-258.489029;342.25;7575;-17475;0.961592464;0.028552056;-0.24371218;1150598651
-258.467122;342.25;7575;-17475;0.961592464;0.02753234;-0.237593884;1150620558
-258.440076;342.25;7575;-17475;0.96363184;0.023453474;-0.237593884;1150647604
-258.417919;342.25;7575;-17475;0.96261216;0.02447319;-0.23963332;1150669761
-258.390195;342.25;7575;-17475;0.96363184;0.022433758;-0.24575162;1150697485
-258.369179;342.25;7575;-17475;0.961592464;0.025492906;-0.25390936;1150718501
-258.340243;342.25;7575;-17475;0.961592464;0.026512622;-0.247791052;1150747437
-258.318897;342.25;7575;-17475;0.96363184;0.02753234;-0.24167276;1150768783
-258.293525;342.25;7575;;917;394;4248;1150794155
-258.270023;342.25;7575;-17475;0.961592464;0.025492906;-0.23555446;1150817657
-258.247299;342.25;7575;-17475;0.96261216;0.030591488;-0.24371218;1150840381
-258.197889;342.25;7575;-17475;0.9585333;0.028552056;-0.25186992;1150889791
-258.149023;342.25;7575;-17475;0.96261216;0.029571772;-0.237593884;1150938657
-258.122104;342.25;7575;-17475;0.961592464;0.029571772;-0.23555446;1150965576
-258.099669;342.25;7575;-17475;0.96363184;0.025492906;-0.242692468;1150988011
-258.077933;342.25;7575;-17475;0.961592464;0.026512622;-0.242692468;1151009747
-258.050569;342.25;7575;-17475;0.96261216;0.02753234;-0.25186992;1151037111
-258.020011;342.25;7575;-17475;0.961592464;0.025492906;-0.248810768;1151067669
-257.969920;342.25;7575;-17475;0.96363184;0.025492906;-0.24065304;1151117760
-257.948012;342.25;7575;-17475;0.961592464;0.020394326;-0.23963332;1151139668
-257.920494;342.25;7575;-17475;0.959553;0.025492906;-0.2447319;1151167186
-257.889787;342.25;7575;-17475;0.9605727;0.026512622;-0.25288964;1151197893
-257.857261;342.25;7575;-17475;0.96363184;0.031611204;-0.24677134;1151230419
-257.827947;342.25;7575;-17475;0.96261216;0.025492906;-0.237593884;1151259733
-257.798375;342.25;7575;-17475;0.96261216;0.020394326;-0.237593884;1151289305
-257.770670;342.25;7575;-17475;0.96261216;0.023453474;-0.242692468;1151317010
-257.727652;342.25;7575;-17475;0.961592464;0.031611204;-0.25288964;1151360028
-257.704620;342.25;7575;-17475;0.961592464;0.028552056;-0.24677134;1151383060
-257.682886;342.25;7575;-17475;0.961592464;0.03263092;-0.24065304;1151404794
-257.638080;342.25;7575;-17475;0.96261216;0.023453474;-0.237593884;1151449600
-257.609838;342.25;7575;-17475;0.961592464;0.023453474;-0.24065304;1151477842
-257.587814;342.25;7575;-17475;0.96261216;0.023453474;-0.24983048;1151499866
-257.565288;342.25;7575;-17475;0.961592464;0.03263092;-0.24983048;1151522392
-257.539515;342.25;7575;-17475;0.961592464;0.028552056;-0.24677134;1151548165
-257.517990;342.25;7575;-17475;0.96363184;0.02753234;-0.23963332;1151569690
-257.487636;342.25;7575;-17475;0.96261216;0.026512622;-0.23657418;1151600044
-257.460411;342.25;7575;;903;391;4248;1151627269
-257.434986;342.25;7575;-17475;0.959553;0.020394326;-0.24983048;1151652694
-257.410010;342.25;7575;-17475;0.96261216;0.022433758;-0.24983048;1151677670
-257.385177;342.25;7575;-17475;0.961592464;0.026512622;-0.24677134;1151702503
-257.359308;342.25;7575;-17475;0.96261216;0.03263092;-0.2447319;1151728372
-257.337284;342.25;7575;-17475;0.96261216;0.028552056;-0.24065304;1151750396
-257.289565;342.25;7575;-17475;0.961592464;0.023453474;-0.2447319;1151798115
-257.263796;342.25;7575;-17475;0.961592464;0.025492906;-0.24677134;1151823884
-257.239247;342.25;7575;-17475;0.961592464;0.030591488;-0.24167276;1151848433
-257.217784;342.25;7575;-17475;0.96363184;0.030591488;-0.24371218;1151869896
-257.189180;342.25;7575;-17475;0.9605727;0.029571772;-0.24167276;1151898500
-257.165235;342.25;7575;-17475;0.961592464;0.02753234;-0.24167276;1151922445
-257.139951;342.25;7575;-17475;0.961592464;0.021414042;-0.24167276;1151947729
-257.117886;342.25;7575;-17475;0.961592464;0.02447319;-0.24575162;1151969794
-257.095621;342.25;7575;-17475;0.961592464;0.02447319;-0.24575162;1151992059
-257.070002;342.25;7575;-17475;0.96363184;0.023453474;-0.23963332;1152017678
-257.047382;342.25;7575;-17475;0.96261216;0.029571772;-0.2447319;1152040298
-257.020440;342.25;7575;-17475;0.959553;0.026512622;-0.2447319;1152067240
-256.999150;342.25;7575;-17475;0.961592464;0.025492906;-0.24371218;1152088530
-256.969360;342.25;7575;-17475;0.9605727;0.0193746092;-0.24575162;1152118320
-256.940064;342.25;7575;-17475;0.959553;0.022433758;-0.24677134;1152147616
-256.915846;342.25;7575;-17475;0.961592464;0.026512622;-0.24065304;1152171834
-256.890051;342.25;7575;-17475;0.96261216;0.030591488;-0.24167276;1152197629
-256.849866;342.25;7575;-17475;0.96363184;0.030591488;-0.248810768;1152237814
-256.827691;342.25;7575;-17475;0.9605727;0.029571772;-0.247791052;1152259989
-256.799476;342.25;7575;-17475;0.9605727;0.02447319;-0.24677134;1152288204
-256.776487;342.25;7575;-17475;0.961592464;0.02447319;-0.242692468;1152311193
-256.750236;342.25;7575;-17475;0.9646516;0.028552056;-0.24065304;1152337444
-256.729017;342.25;7575;-17475;0.961592464;0.029571772;-0.2386136;1152358663
-256.706196;342.25;7575;-17475;0.96261216;0.029571772;-0.24167276;1152381484
-256.678199;342.25;7575;-17475;0.96261216;0.030591488;-0.242692468;1152409481
-256.654409;342.25;7575;-17475;0.9605727;0.028552056;-0.248810768;1152433271
-256.632298;342.25;7575;-17475;0.96261216;0.025492906;-0.24575162;1152455382
-256.609608;342.25;7575;-17475;0.96261216;0.020394326;-0.242692468;1152478072
-256.587785;342.25;7575;-17475;0.961592464;0.023453474;-0.23963332;1152499895
-256.560304;342.25;7575;-17475;0.96363184;0.028552056;-0.2386136;1152527376
-256.529664;342.25;7575;-17475;0.959553;0.02753234;-0.24677134;1152558016
-256.499849;342.25;7575;-17475;0.961592464;0.025492906;-0.248810768;1152587831
-256.477549;342.25;7575;-17475;0.961592464;0.020394326;-0.24065304;1152610131
-256.456216;342.25;7575;-17475;0.96261216;0.026512622;-0.24677134;1152631464
-256.399574;342.25;7575;-17475;0.961592464;0.02753234;-0.24065304;1152688106
-256.375007;342.25;7575;-17475;0.959553;0.025492906;-0.24371218;1152712673
-256.349989;342.25;7575;-17475;0.9605727;0.028552056;-0.248810768;1152737691
-256.327425;342.25;7575;;1382;483;4247;1152760255
-256.299241;342.25;7575;-17475;0.9605727;0.02753234;-0.24575162;1152788439
-256.277827;342.25;7575;-17475;0.961592464;0.021414042;-0.23555446;1152809853
-256.256157;342.25;7575;-17475;0.96261216;0.022433758;-0.23963332;1152831523
-256.231909;342.25;7575;-17475;0.96363184;0.023453474;-0.232495316;1152855771
-256.208394;342.25;7575;-17475;0.961592464;0.030591488;-0.24371218;1152879286
-256.183486;342.25;7575;-17475;0.961592464;0.030591488;-0.247791052;1152904194
-256.159841;342.25;7575;-1747;0.147;0.147;1;1152927839
-256.137841;342.25;7575;-17475;0.96261216;0.023453474;-0.24677134;1152949839
-256.110372;342.25;7575;-17475;0.9605727;0.02447319;-0.24371218;1152977308
-256.086522;342.25;7575;-17475;0.96261216;0.022433758;-0.2386136;1153001158
-256.060341;342.25;7575;-17475;0.96363184;0.02753234;-0.242692468;1153027339
-256.038961;342.25;7575;-17475;0.96261216;0.029571772;-0.24677134;1153048719
-255.997532;342.25;7575;-17475;0.961592464;0.02753234;-0.24983048;1153090148
-255.969764;342.25;7575;-17475;0.959553;0.023453474;-0.247791052;1153117916
-255.946922;342.25;7575;-17475;0.96363184;0.026512622;-0.237593884;1153140758
-255.919976;342.25;7575;-17475;0.96261216;0.022433758;-0.232495316;1153167704
-255.889378;342.25;7575;-17475;0.96363184;0.031611204;-0.24167276;1153198302
-255.867847;342.25;7575;-17475;0.961592464;0.03263092;-0.24983048;1153219833
-255.845775;342.25;7575;-17475;0.959553;0.03263092;-0.25390936;1153241905
-255.809273;342.25;7575;-17475;0.9605727;0.025492906;-0.2447319;1153278407
-255.739769;342.25;7581;-17475;0.96363184;0.022433758;-0.2386136;1153347911
-255.710278;342.25;7575;-17475;0.959553;0.025492906;-0.24983048;1153377402
-255.666090;342.25;7575;-17475;0.961592464;0.03263092;-0.2508502;1153421590
-255.639843;342.25;7581;-17475;0.96261216;0.026512622;-0.24065304;1153447837
-255.610152;342.25;7581;-17475;0.9646516;0.017335176;-0.22433758;1153477528
-255.569942;342.25;7575;-17475;0.961592464;0.022433758;-0.24167276;1153517738
-255.539974;342.25;7575;-17469;0.961592464;0.029571772;-0.25594878;1153547706
-255.509440;342.25;7575;-17469;0.96363184;0.036709784;-0.25288964;1153578240
-255.488155;342.25;7575;-17469;0.961592464;0.033650636;-0.237593884;1153599525
-255.460224;342.25;7575;;957;402;4249;1153627456
-255.439215;342.25;7575;-17469;0.96261216;0.020394326;-0.2314756;1153648465
-255.409511;342.25;7575;-17469;0.96363184;0.021414042;-0.248810768;1153678169
-255.383017;342.25;7575;-17475;0.959553;0.034670352;-0.25594878;1153704663
-255.359636;342.25;7575;-17475;0.9605727;0.03569007;-0.25186992;1153728044
-255.337150;342.25;7575;-17469;0.96363184;0.03263092;-0.24167276;1153750530
-255.307209;342.25;7575;-17475;0.9605727;0.02447319;-0.23453474;1153780471
-255.284997;342.25;7575;-17475;0.96261216;0.020394326;-0.2386136;1153802683
-255.259766;342.25;7575;;985;408;4247;1153827914
-255.237516;342.25;7575;-17475;0.959553;0.0193746092;-0.25288964;1153850164
-255.209478;342.25;7575;-17475;0.96261216;0.03569007;-0.24677134;1153878202
-255.184950;342.25;7575;-17475;0.9605727;0.034670352;-0.24167276;1153902730
-255.116170;342.25;7575;-17475;0.9605727;0.012236595;-0.24371218;1153971510
-255.089288;342.25;7575;-17469;0.961592464;0.022433758;-0.25288964;1153998392
-255.039067;342.25;7575;-17469;0.9646516;0.036709784;-0.23963332;1154048613
-255.009957;342.25;7575;-17469;0.96363184;0.029571772;-0.237593884;1154077723
-254.988008;342.25;7575;-17469;0.96261216;0.020394326;-0.2386136;1154099672
-254.958035;342.25;7575;-17469;0.9605727;0.023453474;-0.2508502;1154129645
-254.935309;342.25;7575;-17469;0.959553;0.025492906;-0.2508502;1154152371
-254.905481;342.25;7575;-17469;0.96261216;0.03263092;-0.2508502;1154182199
-254.877736;342.25;7575;-17469;0.96261216;0.0387492184;-0.24167276;1154209944
-254.855865;342.25;7575;-17469;0.9656713;0.030591488;-0.237593884;1154231815
-254.805877;342.25;7575;-17469;0.961592464;0.0193746092;-0.24371218;1154281803
-254.783911;342.25;7575;-17469;0.96261216;0.020394326;-0.25186992;1154303769
-254.707179;342.25;7575;-17469;0.96363184;0.031611204;-0.242692468;1154380501
-254.659794;342.25;7575;-17463;0.96261216;0.017335176;-0.23963332;1154427886
-254.629930;342.25;7575;-17463;0.961592464;0.017335176;-0.247791052;1154457750
-254.606879;342.3125;7575;-17457;0.9585333;0.021414042;-0.2508502;1154480801
-254.583124;342.3125;7575;-17457;0.961592464;0.030591488;-0.247791052;1154504556
-254.537405;342.3125;7575;-17450;0.96261216;0.0377295;-0.237593884;1154550275
-254.510714;342.3125;7575;-17450;0.9646516;0.029571772;-0.23555446;1154576966
-254.487120;342.3125;7575;-17450;0.961592464;0.013256311;-0.2447319;1154600560
-254.460048;342.3125;7575;-17450;0.959553;0.018354892;-0.24677134;1154627632
-254.408182;342.3125;7575;-17457;0.96261216;0.042828084;-0.242692468;1154679498
-254.384464;342.3125;7575;-17457;0.96261216;0.04078865;-0.24167276;1154703216
-254.359828;342.3125;7575;-17463;0.96261216;0.02753234;-0.24065304;1154727852
-254.336378;342.3125;7575;-17463;0.9605727;0.014276028;-0.24575162;1154751302
-254.309386;342.3125;7575;-17463;0.961592464;0.018354892;-0.248810768;1154778294
-254.285817;342.3125;7575;-17463;0.961592464;0.023453474;-0.24677134;1154801863
-254.260032;342.3125;7575;-17463;0.96261216;0.03263092;-0.24371218;1154827648
-254.219198;342.3125;7575;-17463;0.96261216;0.033650636;-0.2386136;1154868482
-254.189735;342.3125;7575;-17463;0.961592464;0.021414042;-0.24575162;1154897945
-254.167804;342.3125;7575;-17463;0.9605727;0.011216879;-0.24677134;1154919876
-254.143544;342.3125;7575;-17463;0.9605727;0.018354892;-0.247791052;1154944136
-254.119815;342.3125;7575;-17457;0.96261216;0.025492906;-0.24575162;1154967865
-254.089832;342.3125;7575;-17457;0.9605727;0.0377295;-0.2386136;1154997848
-254.067152;342.3125;7575;-17457;0.9605727;0.0377295;-0.24167276;1155020528
-254.042297;342.3125;7575;-17457;0.96363184;0.025492906;-0.24371218;1155045383
-254.009505;342.3125;7575;-17457;0.961592464;0.0193746092;-0.24575162;1155078175
-253.987759;342.3125;7575;-17457;0.961592464;0.022433758;-0.2447319;1155099921
-253.906615;342.3125;7575;-17457;0.9605727;0.0387492184;-0.24575162;1155181065
-253.885085;342.3125;7575;-17457;0.959553;0.028552056;-0.24983048;1155202595
-253.837593;342.3125;7575;-17463;0.96261216;0.015295744;-0.242692468;1155250087
-253.809392;342.3125;7575;-17463;0.9605727;0.020394326;-0.24065304;1155278288
-253.787623;342.3125;7575;-17463;0.959553;0.031611204;-0.23963332;1155300057
-253.698902;342.3125;7575;-17463;0.9605727;0.017335176;-0.247791052;1155388778
-253.676222;342.3125;7575;-17463;0.96261216;0.012236595;-0.24167276;1155411458
-253.648049;342.3125;7575;-17457;0.96261216;0.022433758;-0.237593884;1155439631
-253.623500;342.3125;7575;-17457;0.96363184;0.03569007;-0.24065304;1155464180
-253.599772;342.3125;7575;-17457;0.9605727;0.039768936;-0.2447319;1155487908
-253.577960;342.3125;7575;-17457;0.96363184;0.03569007;-0.24983048;1155509720
-253.556027;342.375;7575;-17457;0.961592464;0.026512622;-0.247791052;1155531653
-253.508044;342.375;7575;-17450;0.96363184;0.018354892;-0.23555446;1155579636
-253.483587;342.375;7575;-17450;0.96261216;0.023453474;-0.23351502;1155604093
-253.435544;342.375;7575;-17457;0.959553;0.0387492184;-0.2508502;1155652136
-253.409346;342.3125;7575;-17457;0.9605727;0.034670352;-0.248810768;1155678334
-253.385889;342.375;7575;-17463;0.96261216;0.025492906;-0.24167276;1155701791
-253.338796;342.3125;7575;-17469;0.96261216;0.009177446;-0.23351502;1155748884
-253.316679;342.3125;7575;-17463;0.959553;0.015295744;-0.24371218;1155771001
-253.288285;342.3125;7575;-17457;0.959553;0.04078865;-0.25390936;1155799395
-253.259270;342.3125;7575;-17457;0.961592464;0.0377295;-0.25492908;1155828410
-253.199885;342.375;7575;-17457;0.96363184;0.018354892;-0.23963332;1155887795
-253.168903;342.375;7581;-17457;0.96363184;0.01631546;-0.23351502;1155918777
-253.139954;342.375;7581;-17457;0.959553;0.026512622;-0.2447319;1155947726
-253.110076;342.375;7575;-17450;0.961592464;0.0377295;-0.25594878;1155977604
-253.079258;342.3125;7575;-17450;0.9605727;0.039768936;-0.2508502;1156008422
-253.049268;342.375;7581;-17450;0.96363184;0.031611204;-0.24371218;1156038412
-252.999621;342.375;7581;-17450;0.96363184;0.013256311;-0.23453474;1156088059
-252.977950;342.375;7581;-17450;0.9605727;0.020394326;-0.2386136;1156109730
-252.899816;342.375;7581;-17457;0.96363184;0.03569007;-0.24677134;1156187864
-252.849030;342.375;7581;-17463;0.961592464;0.015295744;-0.24065304;1156238650
-252.819882;342.375;7581;-17463;0.959553;0.015295744;-0.24371218;1156267798
-252.797323;342.375;7581;-17457;0.9605727;0.02753234;-0.248810768;1156290357
-252.771609;342.4375;7581;-17450;0.96261216;0.033650636;-0.248810768;1156316071
-252.749243;342.4375;7581;-17450;0.961592464;0.03569007;-0.24677134;1156338437
-252.719460;342.4375;7581;-17450;0.9605727;0.029571772;-0.24167276;1156368220
-252.689752;342.4375;7581;-17450;0.961592464;0.0193746092;-0.24167276;1156397928
-252.668075;342.4375;7581;-17450;0.961592464;0.017335176;-0.2386136;1156419605
-252.639854;342.4375;7581;-17444;0.959553;0.022433758;-0.24677134;1156447826
-252.608640;342.4375;7581;-17444;0.9605727;0.042828084;-0.24983048;1156479040
-252.585383;342.4375;7581;-17438;0.9605727;0.042828084;-0.24983048;1156502297
-252.559648;342.5;7581;;337;238;4242;1156528032
-252.537000;342.5;7581;-17444;0.96363184;0.022433758;-0.237593884;1156550680
-252.509609;342.5625;7581;-17444;0.96261216;0.014276028;-0.2386136;1156578071
-252.486058;342.5625;7581;-17444;0.96261216;0.020394326;-0.24065304;1156601622
-252.459882;342.5625;7581;-17444;0.96261216;0.028552056;-0.242692468;1156627798
-252.389464;342.5625;7581;-17444;0.961592464;0.029571772;-0.24065304;1156698216
-252.359473;342.5;7581;-17450;0.96261216;0.018354892;-0.2386136;1156728207
-252.307636;342.5625;7581;-17444;0.96363184;0.02447319;-0.24677134;1156780044
-252.286039;342.5625;7581;-17438;0.959553;0.03263092;-0.24983048;1156801641
-252.259697;342.5625;7581;;293;222;4247;1156827983
-252.237397;342.5625;7581;-17438;0.96363184;0.03263092;-0.242692468;1156850283
-252.213347;342.5625;7581;-17438;0.961592464;0.026512622;-0.23963332;1156874333
-252.187248;342.5625;7581;-17438;0.9605727;0.017335176;-0.24065304;1156900432
-252.153181;342.5625;7581;-17438;0.96261216;0.022433758;-0.24677134;1156934499
-252.109254;342.5625;7581;-17438;0.96261216;0.039768936;-0.24167276;1156978426
-252.039314;342.5;7581;-17450;0.96261216;0.021414042;-0.242692468;1157048366
-252.017783;342.5;7581;-17450;0.961592464;0.01631546;-0.2447319;1157069897
-251.989581;342.5;7581;-17450;0.9605727;0.021414042;-0.24371218;1157098099
-251.939033;342.5;7581;-17450;0.96363184;0.0377295;-0.24371218;1157148647
-251.916506;342.5;7581;-17450;0.96261216;0.033650636;-0.24065304;1157171174
-251.889148;342.5;7581;-17450;0.96261216;0.021414042;-0.24371218;1157198532
-251.859304;342.5;7581;-17450;0.961592464;0.013256311;-0.24167276;1157228376
-251.829461;342.5;7581;-17450;0.961592464;0.0193746092;-0.24371218;1157258219
-251.807438;342.5625;7581;-17444;0.96261216;0.031611204;-0.242692468;1157280242
-251.785586;342.5625;7581;-17444;0.96261216;0.0387492184;-0.242692468;1157302094
-251.759749;342.5625;7581;-17444;0.96363184;0.0387492184;-0.242692468;1157327931
-251.699521;342.5625;7581;-17438;0.96261216;0.01631546;-0.247791052;1157388159
-251.678208;342.5625;7581;-17438;0.961592464;0.0193746092;-0.2386136;1157409472
-251.655945;342.5625;7581;-17438;0.9646516;0.025492906;-0.24167276;1157431735
-251.607073;342.5625;7581;-17432;0.96261216;0.041808368;-0.24677134;1157480607
-251.579181;342.5625;7581;-17438;0.961592464;0.03263092;-0.24575162;1157508499
-251.556106;342.5625;7581;-17444;0.959553;0.015295744;-0.242692468;1157531574
-251.533121;342.5625;7581;-17444;0.96261216;0.013256311;-0.24167276;1157554559
-251.469658;342.5625;7581;-17444;0.96261216;0.03263092;-0.2386136;1157618022
-251.447603;342.5625;7581;-17444;0.96363184;0.04078865;-0.24677134;1157640077
-251.418968;342.5625;7581;-17444;0.9605727;0.028552056;-0.24983048;1157668712
-251.389116;342.5625;7581;-17450;0.96261216;0.021414042;-0.247791052;1157698564
-251.339694;342.5625;7581;-17450;0.961592464;0.01631546;-0.2386136;1157747986
-251.308914;342.625;7581;-17438;0.96363184;0.034670352;-0.248810768;1157778766
-251.287068;342.625;7581;-17432;0.96261216;0.041808368;-0.24677134;1157800612
-251.260359;342.625;7581;-17432;0.961592464;0.041808368;-0.248810768;1157827321
-251.238983;342.625;7581;-17432;0.961592464;0.030591488;-0.24677134;1157848697
-251.209643;342.625;7581;-17432;0.96363184;0.0193746092;-0.242692468;1157878037
-251.186814;342.625;7581;-17432;0.9605727;0.014276028;-0.237593884;1157900866
-251.159735;342.625;7581;;220;193;4247;1157927945
-251.137750;342.625;7581;-17432;0.96363184;0.036709784;-0.24677134;1157949930
-251.109822;342.625;7581;-17432;0.9605727;0.04078865;-0.2508502;1157977858
-251.057485;342.625;7581;-17438;0.96363184;0.022433758;-0.23963332;1158030195
-251.035627;342.625;7581;-17444;0.96363184;0.013256311;-0.23351502;1158052053
-251.008075;342.625;7581;-17444;0.96261216;0.018354892;-0.24065304;1158079605
-250.986129;342.625;7581;-17444;0.961592464;0.025492906;-0.24371218;1158101551
-250.955858;342.625;7581;-17438;0.96261216;0.042828084;-0.24983048;1158131822
-250.931959;342.625;7581;-17438;0.96261216;0.042828084;-0.247791052;1158155721
-250.899399;342.625;7581;-17444;0.959553;0.022433758;-0.24167276;1158188281
-250.877868;342.625;7581;-17444;0.961592464;0.009177446;-0.23351502;1158209812
-250.849824;342.625;7581;-17444;0.96261216;0.013256311;-0.2386136;1158237856
-250.828225;342.625;7581;-17438;0.961592464;0.02753234;-0.24575162;1158259455
-250.769260;342.625;7581;-17425;0.961592464;0.0438478;-0.247791052;1158318420
-250.747807;342.6875;7581;-17419;0.961592464;0.02447319;-0.237593884;1158339873
-250.719585;342.6875;7581;-17425;0.961592464;0.014276028;-0.23657418;1158368095
-250.697760;342.6875;7581;-17425;0.961592464;0.014276028;-0.24065304;1158389920
-250.675932;342.6875;7581;-17425;0.9605727;0.022433758;-0.24575162;1158411748
-250.649716;342.6875;7581;-17425;0.9605727;0.036709784;-0.24983048;1158437964
-250.606909;342.75;7581;-17413;0.96363184;0.0377295;-0.24371218;1158480771
-250.582640;342.75;7581;-17419;0.961592464;0.025492906;-0.237593884;1158505040
-250.559461;342.75;7581;-17425;0.96363184;0.01631546;-0.2386136;1158528219
-250.537056;342.75;7581;-17432;0.959553;0.011216879;-0.23963332;1158550624
-250.509690;342.75;7581;-17432;0.961592464;0.022433758;-0.2447319;1158577990
-250.487921;342.75;7581;-17425;0.96261216;0.03263092;-0.24575162;1158599759
-250.459804;342.75;7581;;172;170;4250;1158627876
-250.437308;342.75;7581;-17419;0.96261216;0.031611204;-0.2386136;1158650372
-250.416172;342.75;7581;-17419;0.96261216;0.025492906;-0.24065304;1158671508
-250.388763;342.75;7581;-17425;0.96261216;0.014276028;-0.24167276;1158698917
-250.366902;342.75;7581;-17425;0.96261216;0.015295744;-0.24575162;1158720778
-250.339512;342.75;7581;-17425;0.9605727;0.02447319;-0.24371218;1158748168
-250.318192;342.75;7581;-17413;0.961592464;0.0377295;-0.24167276;1158769488
-250.296139;342.75;7581;-17413;0.96261216;0.039768936;-0.24371218;1158791541
-250.269725;342.75;7581;-17407;0.96261216;0.0377295;-0.24167276;1158817955
-250.247931;342.75;7581;-17407;0.96363184;0.023453474;-0.24575162;1158839749
-250.210964;342.75;7581;-17413;0.9605727;0.015295744;-0.24677134;1158876716
-250.169323;342.75;7581;-17413;0.96261216;0.030591488;-0.2447319;1158918357
-250.142607;342.75;7581;-17413;0.96363184;0.0377295;-0.24371218;1158945073
-250.119107;342.75;7581;-17413;0.96261216;0.0387492184;-0.242692468;1158968573
-250.096101;342.8125;7581;-17413;0.96363184;0.023453474;-0.23963332;1158991579
-250.069571;342.8125;7581;-17419;0.9605727;0.017335176;-0.24065304;1159018109
-250.048026;342.8125;7581;-17419;0.961592464;0.011216879;-0.242692468;1159039654
-249.999629;342.8125;7581;-17419;0.961592464;0.033650636;-0.248810768;1159088051
-249.977560;342.8125;7581;-17413;0.96261216;0.0387492184;-0.2447319;1159110120
-249.955684;342.8125;7581;-17413;0.96261216;0.033650636;-0.237593884;1159131996
-249.931483;342.8125;7581;-17413;0.96363184;0.023453474;-0.23657418;1159156197
-249.908495;342.875;7581;-17413;0.96261216;0.0061182976;-0.2386136;1159179185
-249.882115;342.8125;7581;-17413;0.96261216;0.010197163;-0.23963332;1159205565
-249.859290;342.8125;7581;-17400;0.959553;0.02753234;-0.2508502;1159228390
-249.837752;342.8125;7581;-17394;0.961592464;0.041808368;-0.24983048;1159249928
-249.809869;342.8125;7581;-17394;0.9646516;0.04588723;-0.24167276;1159277811
-249.759758;342.875;7581;-17388;0.961592464;0.018354892;-0.23657418;1159327922
-249.706413;342.8125;7575;-17388;0.961592464;0.029571772;-0.25900792;1159381267
-249.684248;342.8125;7575;-17388;0.959553;0.041808368;-0.248810768;1159403432
-249.637619;342.8125;7575;-17388;0.96261216;0.033650636;-0.23351502;1159450061
-249.609192;342.8125;7575;-17400;0.9605727;0.017335176;-0.237593884;1159478488
-249.583776;342.8125;7575;-17394;0.9605727;0.00815773;-0.24371218;1159503904
-249.508020;342.875;7581;-17388;0.9656713;0.041808368;-0.232495316;1159579660
-249.482771;342.875;7581;-17388;0.96363184;0.0377295;-0.22841644;1159604909
-249.437891;342.9375;7581;-17394;0.9605727;0.012236595;-0.248810768;1159649789
-249.409282;342.9375;7581;-17394;0.959553;0.013256311;-0.2508502;1159678398
-249.387593;342.9375;7581;-17382;0.96261216;0.028552056;-0.242692468;1159700087
-249.335474;342.9375;7581;-17375;0.9646516;0.042828084;-0.22943616;1159752206
-249.299200;342.9375;7581;-17382;0.96363184;0.03263092;-0.24065304;1159788480
-249.269567;342.9375;7581;-17382;0.9605727;0.010197163;-0.25492908;1159818113
-249.247388;342.9375;7581;-17382;0.9605727;0.014276028;-0.25390936;1159840292
-249.222400;342.9375;7581;-17382;0.96363184;0.025492906;-0.23963332;1159865280
-249.197837;342.9375;7581;-17375;0.9646516;0.0387492184;-0.23045588;1159889843
-249.175396;342.9375;7581;-17375;0.96363184;0.041808368;-0.23045588;1159912284
-249.149577;342.9375;7581;-17382;0.9605727;0.033650636;-0.242692468;1159938103
-249.106028;342.9375;7581;-17382;0.9585333;0.013256311;-0.25900792;1159981652
-249.083632;342.9375;7581;-17382;0.9605727;0.013256311;-0.248810768;1160004048
-249.038138;342.9375;7581;-17375;0.9646516;0.034670352;-0.23045588;1160049542
-248.987685;342.9375;7581;-17375;0.961592464;0.03263092;-0.248810768;1160099995
-248.937113;342.9375;7581;-17375;0.959553;0.012236595;-0.247791052;1160150567
-248.909252;342.9375;7581;-17369;0.9646516;0.025492906;-0.2314756;1160178428
-248.859330;342.9375;7581;-17363;0.96363184;0.044867516;-0.23657418;1160228350
-248.836597;342.9375;7581;-17363;0.961592464;0.0387492184;-0.24677134;1160251083
-248.808899;343.0;7581;-17363;0.9605727;0.02447319;-0.25492908;1160278781
-248.786313;343.0;7581;-17363;0.959553;0.017335176;-0.24677134;1160301367
-248.738050;343.0;7581;-17363;0.961592464;0.025492906;-0.22433758;1160349630
-248.716019;343.0;7581;-17363;0.9646516;0.031611204;-0.237593884;1160371661
-248.689553;343.0;7581;-17363;0.96363184;0.036709784;-0.24167276;1160398127
-248.667798;343.0;7581;-17363;0.959553;0.031611204;-0.25390936;1160419882
-248.638858;343.0;7581;-17369;0.9605727;0.018354892;-0.2508502;1160448822
-248.608119;343.0;7581;-17369;0.96261216;0.01631546;-0.232495316;1160479561
-248.586545;343.0;7581;-17369;0.9646516;0.0193746092;-0.23045588;1160501135
-248.529153;343.0;7581;-17369;0.9605727;0.03569007;-0.24983048;1160558527
-248.499409;343.0;7581;-17369;0.961592464;0.031611204;-0.25390936;1160588271
-248.477934;343.0;7581;-17369;0.961592464;0.022433758;-0.24677134;1160609746
-248.456093;343.0;7581;-17369;0.96363184;0.0193746092;-0.2386136;1160631587
-248.407466;343.0;7581;-17369;0.961592464;0.030591488;-0.23963332;1160680214
-248.335958;343.0;7581;-17369;0.9605727;0.028552056;-0.248810768;1160751722
-248.309053;343.0;7581;-17369;0.96363184;0.025492906;-0.2386136;1160778627
-248.283145;343.0;7581;-17363;0.96363184;0.021414042;-0.23351502;1160804535
-248.258917;343.0;7581;-17363;0.96261216;0.022433758;-0.23555446;1160828763
-248.199164;343.0;7581;-17363;0.96261216;0.028552056;-0.25186992;1160888516
-248.176556;343.0;7581;-17363;0.96261216;0.029571772;-0.24575162;1160911124
-248.149899;343.0;7581;-17363;0.96363184;0.028552056;-0.24167276;1160937781
-248.099855;343.0;7581;-17363;0.96363184;0.0193746092;-0.23351502;1160987825
-248.077050;343.0;7581;-17363;0.96363184;0.02447319;-0.24371218;1161010630
-248.019076;343.0;7581;-17363;0.961592464;0.03263092;-0.24371218;1161068604
-247.996525;343.0;7581;-17363;0.96363184;0.031611204;-0.23963332;1161091155
-247.939324;343.0;7581;-17363;0.96363184;0.022433758;-0.23963332;1161148356
-247.915722;343.0;7581;-17363;0.96261216;0.02753234;-0.2447319;1161171958
-247.889481;343.0;7581;-17363;0.9585333;0.029571772;-0.247791052;1161198199
-247.866982;343.0;7581;-17363;0.96363184;0.03569007;-0.242692468;1161220698
-247.839402;343.0;7581;-17363;0.96261216;0.033650636;-0.24065304;1161248278
-247.809107;343.0;7581;-17363;0.96363184;0.023453474;-0.2386136;1161278573
-247.786178;343.0;7581;-17363;0.961592464;0.020394326;-0.24167276;1161301502
-247.759683;343.0;7581;;135;151;4250;1161327997
-247.736097;343.0;7581;-17363;0.96261216;0.028552056;-0.24575162;1161351583
-247.709109;343.0;7581;-17363;0.961592464;0.033650636;-0.2447319;1161378571
-247.686331;343.0;7581;-17363;0.961592464;0.031611204;-0.24167276;1161401349
-247.659743;343.0625;7581;;97;128;4250;1161427937
-247.636939;343.0625;7581;-17357;0.96261216;0.0193746092;-0.24371218;1161450741
-247.609095;343.125;7581;-17357;0.961592464;0.020394326;-0.247791052;1161478585
-247.585726;343.125;7581;-17357;0.961592464;0.02447319;-0.242692468;1161501954
-247.559759;343.125;7581;;107;134;4247;1161527921
-247.533989;343.125;7581;-17357;0.9646516;0.0387492184;-0.237593884;1161553691
-247.498138;343.125;7581;-17357;0.96261216;0.028552056;-0.24065304;1161589542
-247.469403;343.125;7581;-17357;0.961592464;0.021414042;-0.24371218;1161618277
-247.447543;343.125;7581;-17357;0.96261216;0.018354892;-0.24371218;1161640137
-247.425931;343.125;7581;-17357;0.961592464;0.026512622;-0.242692468;1161661749
-247.399222;343.125;7581;-17357;0.961592464;0.031611204;-0.24167276;1161688458
-247.377807;343.125;7581;-17357;0.96363184;0.034670352;-0.237593884;1161709873
-247.298326;343.0625;7581;-17363;0.961592464;0.015295744;-0.24575162;1161789354
-247.269818;343.0625;7581;-17363;0.961592464;0.013256311;-0.24065304;1161817862
-247.248139;343.125;7581;-17357;0.96261216;0.029571772;-0.24065304;1161839541
-247.216026;343.0625;7581;-17357;0.9605727;0.0377295;-0.24371218;1161871654
-247.189360;343.0625;7581;-17357;0.96363184;0.034670352;-0.24371218;1161898320
-247.166139;343.0625;7581;-17357;0.96363184;0.021414042;-0.24575162;1161921541
-247.139303;343.0625;7581;-17357;0.961592464;0.018354892;-0.247791052;1161948377
-247.109660;343.0625;7581;-17357;0.9605727;0.020394326;-0.2447319;1161978020
-247.069165;343.125;7581;-17344;0.9656713;0.036709784;-0.237593884;1162018515
-247.039292;343.125;7581;-17344;0.96363184;0.039768936;-0.242692468;1162048388
-247.007840;343.125;7581;-17344;0.96261216;0.02753234;-0.24983048;1162079840
-246.984537;343.125;7581;-17344;0.9605727;0.021414042;-0.24371218;1162103143
-246.959345;343.125;7581;;323;233;4251;1162128335
-246.937894;343.125;7581;-17344;0.96363184;0.02753234;-0.2386136;1162149786
-246.916104;343.125;7581;-17344;0.96261216;0.03263092;-0.237593884;1162171576
-246.889376;343.125;7581;-17344;0.96363184;0.033650636;-0.24167276;1162198304
-246.867548;343.125;7581;-17344;0.9605727;0.029571772;-0.248810768;1162220132
-246.845690;343.125;7587;-17350;0.961592464;0.025492906;-0.24983048;1162241990
-246.818979;343.125;7587;-17350;0.96261216;0.017335176;-0.24065304;1162268701
-246.789442;343.125;7587;-17350;0.961592464;0.013256311;-0.23657418;1162298238
-246.767137;343.125;7587;-17350;0.9646516;0.02447319;-0.2386136;1162320543
-246.745715;343.125;7587;-17350;0.9605727;0.03569007;-0.2447319;1162341965
-246.718986;343.125;7587;-17350;0.9605727;0.036709784;-0.25594878;1162368694
-246.696382;343.125;7587;-17350;0.9605727;0.03263092;-0.25390936;1162391298
-246.669837;343.125;7587;-17350;0.96363184;0.022433758;-0.24065304;1162417843
-246.626080;343.125;7587;-17350;0.959553;0.015295744;-0.22943616;1162461600
-246.599021;343.125;7587;-17350;0.96363184;0.03263092;-0.24575162;1162488659
-246.577053;343.125;7587;-17350;0.959553;0.033650636;-0.25186992;1162510627
-246.551602;343.125;7587;-17350;0.9605727;0.036709784;-0.25390936;1162536078
-246.528981;343.125;7587;-17344;0.9605727;0.022433758;-0.2447319;1162558699
-246.506573;343.125;7587;-17344;0.96363184;0.01631546;-0.23453474;1162581107
-246.482238;343.125;7587;-17344;0.96261216;0.020394326;-0.23351502;1162605442
-246.449015;343.125;7587;-17344;0.96363184;0.025492906;-0.237593884;1162638665
-246.419088;343.125;7587;-17344;0.96363184;0.034670352;-0.24575162;1162668592
-246.397215;343.125;7587;-17344;0.961592464;0.025492906;-0.24575162;1162690465
-246.375967;343.125;7587;-17344;0.961592464;0.020394326;-0.2508502;1162711713
-246.327564;343.125;7587;-17344;0.966691;0.0193746092;-0.23351502;1162760116
-246.299581;343.125;7587;-17344;0.96363184;0.026512622;-0.24065304;1162788099
-246.276879;343.125;7581;-17344;0.9605727;0.033650636;-0.24371218;1162810801
-246.196341;343.125;7587;-17344;0.96261216;0.0193746092;-0.23963332;1162891339
-246.169084;343.125;7587;-17344;0.96261216;0.020394326;-0.24167276;1162918596
-246.146580;343.125;7587;-17344;0.9646516;0.025492906;-0.237593884;1162941100
-246.097946;343.1875;7587;-17344;0.961592464;0.036709784;-0.2447319;1162989734
-246.069342;343.1875;7587;-17344;0.961592464;0.034670352;-0.24983048;1163018338
-246.047111;343.1875;7587;-17344;0.959553;0.022433758;-0.24371218;1163040569
-246.018947;343.1875;7587;-17344;0.96261216;0.013256311;-0.23555446;1163068733
-245.988723;343.125;7587;-17350;0.96261216;0.018354892;-0.232495316;1163098957
-245.965539;343.125;7587;-17350;0.9646516;0.028552056;-0.23657418;1163122141
-245.938780;343.125;7587;-17350;0.959553;0.03263092;-0.248810768;1163148900
-245.916241;343.125;7587;-17350;0.9605727;0.031611204;-0.2508502;1163171439
-245.879422;343.125;7587;-17350;0.961592464;0.023453474;-0.25492908;1163208258
-245.857001;343.125;7587;-17350;0.9585333;0.018354892;-0.23963332;1163230679
-245.827861;343.125;7587;-17350;0.96261216;0.022433758;-0.24065304;1163259819
-245.806016;343.125;7587;-17350;0.96363184;0.031611204;-0.24065304;1163281664
-245.779212;343.125;7587;-17350;0.961592464;0.03569007;-0.2508502;1163308468
-245.736551;343.125;7587;-17350;0.9605727;0.026512622;-0.24575162;1163351129
-245.708572;343.125;7587;-17350;0.9605727;0.020394326;-0.2447319;1163379108
-245.685814;343.125;7587;-17350;0.96261216;0.023453474;-0.23555446;1163401866
-245.636873;343.125;7587;-17350;0.959553;0.03263092;-0.2447319;1163450807
-245.608958;343.125;7587;-17350;0.96261216;0.031611204;-0.24167276;1163478722
-245.586526;343.1875;7587;-17344;0.96363184;0.02447319;-0.24167276;1163501154
-245.534658;343.1875;7587;-17344;0.96363184;0.020394326;-0.23555446;1163553022
-245.508889;343.1875;7587;-17344;0.96363184;0.023453474;-0.232495316;1163578791
-245.486249;343.1875;7587;-17344;0.96363184;0.02753234;-0.2386136;1163601431
-245.461029;343.1875;7587;-17344;0.9605727;0.028552056;-0.24167276;1163626651
-245.438661;343.1875;7587;-17344;0.96363184;0.030591488;-0.247791052;1163649019
-245.409108;343.1875;7587;-17344;0.9605727;0.02447319;-0.24677134;1163678572
-245.386682;343.1875;7587;-17344;0.96363184;0.020394326;-0.23453474;1163700998
-245.285462;343.1875;7587;-17344;0.9585333;0.031611204;-0.25900792;1163802218
-245.259585;343.1875;7587;-17344;0.9585333;0.02753234;-0.24677134;1163828095
-245.238227;343.1875;7587;-17344;0.96261216;0.023453474;-0.2386136;1163849453
-245.217108;343.1875;7587;-17344;0.96261216;0.02447319;-0.23555446;1163870572
-245.189394;343.1875;7587;-17344;0.96363184;0.025492906;-0.23657418;1163898286
-245.167234;343.1875;7587;-17344;0.961592464;0.028552056;-0.248810768;1163920446
-245.139391;343.1875;7587;-17344;0.961592464;0.03263092;-0.25390936;1163948289
-245.117349;343.1875;7587;-17344;0.96261216;0.033650636;-0.247791052;1163970331
-245.086843;343.1875;7587;-17344;0.959553;0.022433758;-0.237593884;1164000837
-245.059484;343.1875;7587;-17344;0.96261216;0.021414042;-0.2314756;1164028196
-244.998951;343.1875;7587;-17344;0.959553;0.030591488;-0.25288964;1164088729
-244.969488;343.1875;7587;-17344;0.961592464;0.03263092;-0.24677134;1164118192
-244.947904;343.1875;7587;-17344;0.9605727;0.026512622;-0.23963332;1164139776
-244.917816;343.1875;7587;-17344;0.961592464;0.01631546;-0.2314756;1164169864
-244.895950;343.1875;7587;-17344;0.9646516;0.017335176;-0.2314756;1164191730
-244.849076;343.1875;7581;-17344;0.9605727;0.026512622;-0.25390936;1164238604
-244.825197;343.1875;7581;-17344;0.961592464;0.03263092;-0.24983048;1164262483
-244.798822;343.1875;7581;-17344;0.96363184;0.034670352;-0.24371218;1164288858
-244.769657;343.1875;7581;-17344;0.96363184;0.02753234;-0.232495316;1164318023
-244.738562;343.1875;7581;-17344;0.9656713;0.02447319;-0.237593884;1164349118
-244.709548;343.1875;7581;-17344;0.961592464;0.020394326;-0.24575162;1164378132
-244.678808;343.1875;7581;-17344;0.96261216;0.02753234;-0.2508502;1164408872
-244.633281;343.1875;7581;-17344;0.96363184;0.0377295;-0.2386136;1164454399
-244.608835;343.25;7581;-17344;0.96363184;0.028552056;-0.237593884;1164478845
-244.586583;343.25;7587;-17344;0.9656713;0.015295744;-0.23657418;1164501097
-244.559367;343.25;7587;;105;133;4248;1164528313
-244.536076;343.25;7587;-17344;0.961592464;0.021414042;-0.24983048;1164551604
-244.509533;343.25;7587;-17344;0.9585333;0.030591488;-0.25492908;1164578147
-244.459439;343.25;7587;-17338;0.9646516;0.030591488;-0.232495316;1164628241
-244.425743;343.3125;7587;-17338;0.96363184;0.0193746092;-0.23045588;1164661937
-244.398907;343.3125;7587;-17338;0.961592464;0.017335176;-0.242692468;1164688773
-244.377068;343.25;7587;-17338;0.961592464;0.023453474;-0.25186992;1164710612
-244.349105;343.25;7581;-17332;0.96261216;0.0387492184;-0.25594878;1164738575
-244.318643;343.25;7581;-17332;0.96363184;0.0438478;-0.24167276;1164769037
-244.285518;343.25;7587;-17338;0.9646516;0.0193746092;-0.22841644;1164802162
-244.257719;343.25;7587;-17338;0.96261216;0.012236595;-0.242692468;1164829961
-244.228746;343.25;7581;-17338;0.961592464;0.014276028;-0.24983048;1164858934
-244.207090;343.25;7581;-17338;0.9605727;0.03569007;-0.25900792;1164880590
-244.184823;343.25;7581;-17338;0.96363184;0.042828084;-0.25288964;1164902857
-244.159161;343.25;7581;;448;275;4250;1164928519
-244.137435;343.25;7587;-17338;0.96363184;0.023453474;-0.23453474;1164950245
-244.109464;343.25;7587;-17344;0.96261216;0.012236595;-0.23453474;1164978216
-244.088212;343.25;7587;-17344;0.9605727;0.007138014;-0.24371218;1164999468
-244.067113;343.25;7587;-17344;0.959553;0.0193746092;-0.2569685;1165020567
-244.039047;343.25;7581;-17332;0.9605727;0.033650636;-0.25186992;1165048633
-243.986306;343.25;7587;-17332;0.96261216;0.031611204;-0.23453474;1165101374
-243.959253;343.3125;7587;-17338;0.96363184;0.021414042;-0.23351502;1165128427
-243.936953;343.3125;7587;-17338;0.961592464;0.007138014;-0.242692468;1165150727
-243.908737;343.3125;7587;-17332;0.9605727;0.017335176;-0.25288964;1165178943
-243.886411;343.3125;7587;-17325;0.961592464;0.03263092;-0.24983048;1165201269
-243.838575;343.3125;7587;-17325;0.96363184;0.04894638;-0.23453474;1165249105
-243.817225;343.3125;7587;-17332;0.96363184;0.033650636;-0.23657418;1165270455
-243.788923;343.3125;7587;-17338;0.961592464;0.013256311;-0.24371218;1165298757
-243.766769;343.3125;7587;-17338;0.961592464;0.0061182976;-0.25390936;1165320911
-243.744067;343.3125;7587;-17338;0.959553;0.01631546;-0.25390936;1165343613
-243.708667;343.3125;7587;-17332;0.96363184;0.0438478;-0.2386136;1165379013
-243.686865;343.3125;7587;-17332;0.9646516;0.047926664;-0.2253573;1165400815
-243.659640;343.3125;7587;;452;276;4251;1165428040
-243.636014;343.3125;7587;-17344;0.959553;0.011216879;-0.247791052;1165451666
-243.608030;343.3125;7587;-17344;0.9585333;0.009177446;-0.25594878;1165479650
-243.586128;343.3125;7587;-17344;0.959553;0.0193746092;-0.25390936;1165501552
-243.559238;343.3125;7587;-17338;0.96261216;0.033650636;-0.24167276;1165528442
-243.517664;343.3125;7587;-17338;0.9646516;0.042828084;-0.23351502;1165570016
-243.488573;343.3125;7587;-17344;0.959553;0.030591488;-0.24575162;1165599107
-243.466443;343.3125;7587;-17344;0.961592464;0.010197163;-0.2579882;1165621237
-243.439077;343.375;7587;-17344;0.9605727;0.011216879;-0.25186992;1165648603
-243.409232;343.375;7587;-17338;0.96261216;0.02447319;-0.23657418;1165678448
-243.387238;343.375;7587;-17338;0.966691;0.041808368;-0.23045588;1165700442
-243.365450;343.375;7587;-17338;0.96363184;0.042828084;-0.23045588;1165722230
-243.339140;343.375;7587;-17344;0.96261216;0.029571772;-0.24371218;1165748540
-243.308667;343.375;7587;-17344;0.9585333;0.017335176;-0.2579882;1165779013
-243.286798;343.375;7587;-17344;0.959553;0.0193746092;-0.2579882;1165800882
-243.264620;343.375;7593;-17344;0.96261216;0.020394326;-0.24371218;1165823060
-243.238894;343.375;7593;-17344;0.961592464;0.025492906;-0.23045588;1165848786
-243.216943;343.375;7593;-17344;0.9656713;0.03569007;-0.23045588;1165870737
-243.188907;343.375;7593;-17344;0.961592464;0.02753234;-0.237593884;1165898773
-243.166599;343.375;7593;-17344;0.959553;0.018354892;-0.25492908;1165921081
-243.139011;343.375;7593;-17344;0.9585333;0.018354892;-0.25492908;1165948669
-243.096268;343.375;7593;;35;77;4252;1165991412
-243.068682;343.3125;7593;-17344;0.96363184;0.03569007;-0.23045588;1166018998
-243.046945;343.3125;7593;-17344;0.961592464;0.031611204;-0.24371218;1166040735
-242.988416;343.375;7593;-17344;0.9605727;0.022433758;-0.25186992;1166099264
-242.966733;343.375;7593;-17344;0.96261216;0.029571772;-0.242692468;1166120947
-242.944766;343.375;7593;-17344;0.96261216;0.030591488;-0.23963332;1166142914
-242.888011;343.375;7593;-17344;0.96261216;0.030591488;-0.237593884;1166199669
-242.862075;343.375;7593;-17344;0.9605727;0.020394326;-0.24575162;1166225605
-242.838470;343.375;7593;-17344;0.9605727;0.0193746092;-0.24677134;1166249210
-242.816813;343.375;7593;-17344;0.961592464;0.023453474;-0.24575162;1166270867
-242.789097;343.375;7593;-17344;0.96363184;0.026512622;-0.24371218;1166298583
-242.705179;343.375;7593;-17344;0.96261216;0.018354892;-0.24167276;1166382501
-242.678539;343.375;7593;-17344;0.96261216;0.0193746092;-0.247791052;1166409141
-242.657197;343.375;7593;-17344;0.961592464;0.023453474;-0.24371218;1166430483
-242.617661;343.375;7593;-17338;0.96363184;0.03263092;-0.2386136;1166470019
-242.588207;343.375;7593;-17338;0.9605727;0.033650636;-0.237593884;1166499473
-242.559204;343.375;7593;-17338;0.961592464;0.030591488;-0.242692468;1166528476
-242.496675;343.375;7593;-17338;0.9605727;0.02447319;-0.2508502;1166591005
-242.473569;343.375;7593;-17338;0.96363184;0.029571772;-0.2447319;1166614111
-242.448931;343.375;7593;-17338;0.96261216;0.034670352;-0.242692468;1166638749
-242.418598;343.4375;7593;-17338;0.96363184;0.03569007;-0.24371218;1166669082
-242.395856;343.4375;7593;-17338;0.961592464;0.028552056;-0.24371218;1166691824
-242.368969;343.4375;7593;-17338;0.96261216;0.023453474;-0.24371218;1166718711
-242.346982;343.4375;7593;-17338;0.9605727;0.020394326;-0.24677134;1166740698
-242.318512;343.4375;7593;-17338;0.96261216;0.023453474;-0.23657418;1166769168
-242.288384;343.4375;7593;-17338;0.96261216;0.029571772;-0.23555446;1166799296
-242.258968;343.4375;7593;-17338;0.961592464;0.030591488;-0.24167276;1166828712
-242.184356;343.4375;7593;-17338;0.961592464;0.018354892;-0.23453474;1166903324
-242.158133;343.4375;7593;-17338;0.9646516;0.020394326;-0.2314756;1166929547
-242.135935;343.4375;7593;-17338;0.96261216;0.031611204;-0.24167276;1166951745
-242.108882;343.4375;7593;-17338;0.96261216;0.0387492184;-0.2508502;1166978798
-242.085331;343.4375;7593;-17338;0.961592464;0.031611204;-0.24677134;1167002349
-242.058932;343.4375;7593;;-25;0;4247;1167028748
-242.036734;343.4375;7593;-17338;0.96363184;0.020394326;-0.232495316;1167050946
-242.014983;343.4375;7593;-17338;0.96363184;0.023453474;-0.2314756;1167072697
-241.988867;343.4375;7593;-17338;0.96261216;0.026512622;-0.23453474;1167098813
-241.967178;343.4375;7593;-17344;0.9605727;0.033650636;-0.2579882;1167120502
-241.945908;343.4375;7593;-17344;0.959553;0.03569007;-0.25900792;1167141772
-241.917248;343.4375;7593;-17344;0.961592464;0.030591488;-0.248810768;1167170432
-241.888834;343.4375;7593;-17344;0.961592464;0.020394326;-0.24677134;1167198846
-241.867103;343.4375;7593;-17350;0.9646516;0.017335176;-0.22739672;1167220577
-241.844885;343.4375;7593;-17350;0.961592464;0.025492906;-0.23351502;1167242795
-241.817718;343.4375;7593;-17350;0.959553;0.023453474;-0.25492908;1167269962
-241.788321;343.4375;7593;-17350;0.959553;0.029571772;-0.25900792;1167299359
-241.747392;343.4375;7593;-17350;0.961592464;0.02447319;-0.24167276;1167340288
-241.718097;343.4375;7593;-17350;0.9656713;0.015295744;-0.22229814;1167369583
-241.695827;343.4375;7593;-17350;0.96261216;0.020394326;-0.23351502;1167391853
-241.668295;343.4375;7593;-17350;0.9605727;0.025492906;-0.237593884;1167419385
-241.647078;343.4375;7593;-17350;0.9585333;0.030591488;-0.26002764;1167440602
-241.618407;343.4375;7593;-17350;0.9585333;0.031611204;-0.26002764;1167469273
-241.596097;343.4375;7593;-17350;0.96363184;0.030591488;-0.2386136;1167491583
-241.568691;343.4375;7600;-17350;0.96363184;0.023453474;-0.22331786;1167518989
-241.547038;343.4375;7600;-17350;0.9646516;0.01631546;-0.22739672;1167540642
-241.518455;343.4375;7593;-17350;0.961592464;0.022433758;-0.2447319;1167569225
-241.488146;343.4375;7593;-17350;0.961592464;0.031611204;-0.26002764;1167599534
-241.465298;343.4375;7593;-17350;0.96363184;0.0377295;-0.24065304;1167622382
-241.438203;343.4375;7600;-17350;0.96363184;0.03263092;-0.23045588;1167649477
-241.408570;343.4375;7600;-17350;0.96363184;0.020394326;-0.23045588;1167679110
-241.386321;343.4375;7600;-17350;0.961592464;0.01631546;-0.24065304;1167701359
-241.364824;343.4375;7600;-17350;0.9605727;0.020394326;-0.25186992;1167722856
-241.338708;343.4375;7593;-17350;0.959553;0.025492906;-0.25390936;1167748972
-241.276163;343.4375;7593;-17350;0.9646516;0.031611204;-0.23045588;1167811517
-241.218747;343.4375;7593;-17350;0.96363184;0.022433758;-0.24575162;1167868933
-241.195613;343.4375;7593;-17350;0.959553;0.02753234;-0.25492908;1167892067
-241.168820;343.375;7593;-17350;0.959553;0.028552056;-0.2569685;1167918860
-241.145700;343.375;7593;-17350;0.96261216;0.028552056;-0.24167276;1167941980
-241.088184;343.4375;7600;-17350;0.9646516;0.020394326;-0.22433758;1167999496
-241.065507;343.4375;7593;-17350;0.96261216;0.026512622;-0.2508502;1168022173
-241.039431;343.5;7593;-17344;0.961592464;0.028552056;-0.2579882;1168048249
-241.008299;343.5;7593;-17344;0.9605727;0.023453474;-0.2579882;1168079381
-240.987046;343.5;7593;-17344;0.96261216;0.029571772;-0.23351502;1168100634
-240.964808;343.5;7600;-17344;0.968730432;0.028552056;-0.22331786;1168122872
-240.938540;343.5;7600;-17344;0.9646516;0.020394326;-0.22331786;1168149140
-240.908808;343.5;7600;-17344;0.96261216;0.022433758;-0.24167276;1168178872
-240.858489;343.5;7593;-17344;0.9605727;0.025492906;-0.25594878;1168229191
-240.807421;343.5;7593;-17344;0.96363184;0.025492906;-0.22841644;1168280259
-240.783638;343.5;7593;-17344;0.96363184;0.02753234;-0.2314756;1168304042
-240.758267;343.5;7593;-17344;0.961592464;0.0193746092;-0.237593884;1168329413
-240.697352;343.4375;7593;-17344;0.9575136;0.033650636;-0.26206708;1168390328
-240.675566;343.4375;7593;-17344;0.96363184;0.031611204;-0.23657418;1168412114
-240.648672;343.4375;7593;-17344;0.9656713;0.030591488;-0.21821928;1168439008
-240.626802;343.4375;7593;-17344;0.96261216;0.012236595;-0.219239;1168460878
-240.598611;343.4375;7587;-17344;0.95649384;0.028552056;-0.25492908;1168489069
-240.576339;343.4375;7587;-17344;0.9575136;0.0377295;-0.27328396;1168511341
-240.549574;343.4375;7587;-17344;0.9585333;0.041808368;-0.26512624;1168538106
-240.528167;343.4375;7593;-17344;0.96261216;0.026512622;-0.2253573;1168559513
-240.498787;343.4375;7593;-17350;0.9646516;0.009177446;-0.215160132;1168588893
-240.477046;343.5;7593;-17344;0.96363184;0.01631546;-0.23351502;1168610634
-240.418563;343.5;7593;-17350;0.9605727;0.031611204;-0.2569685;1168669117
-240.396781;343.5;7593;-17344;0.9656713;0.030591488;-0.22841644;1168690899
-240.372554;343.5;7593;-17344;0.96363184;0.028552056;-0.22229814;1168715126
-240.348346;343.5;7593;-17344;0.96363184;0.020394326;-0.219239;1168739334
-240.326104;343.4375;7593;;667;336;4246;1168761576
-240.298300;343.4375;7593;-17350;0.959553;0.017335176;-0.26206708;1168789380
-240.276408;343.5;7593;-17344;0.9605727;0.034670352;-0.25390936;1168811272
-240.248609;343.4375;7593;-17338;0.96363184;0.036709784;-0.24167276;1168839071
-240.198447;343.4375;7593;-17338;0.9646516;0.028552056;-0.2253573;1168889233
-240.175186;343.4375;7593;-17338;0.9605727;0.011216879;-0.24677134;1168912494
-240.148675;343.4375;7587;-17344;0.95649384;0.0193746092;-0.26104736;1168939005
-240.098727;343.4375;7587;-17338;0.96363184;0.033650636;-0.247791052;1168988953
-240.076903;343.4375;7587;-17325;0.96363184;0.049966096;-0.23351502;1169010777
-240.038029;343.5;7587;-17325;0.966691;0.041808368;-0.237593884;1169049651
-240.008566;343.5;7587;-17338;0.9575136;0.0;-0.25900792;1169079114
-239.986672;343.5;7587;-17344;0.95649384;-0.0010197163;-0.25390936;1169101008
-239.965040;343.5;7587;-17338;0.96363184;0.018354892;-0.24371218;1169122640
-239.938527;343.5;7587;-17325;0.9646516;0.0377295;-0.23453474;1169149153
-239.913473;343.5;7587;-17319;0.966691;0.04894638;-0.23555446;1169174207
-239.887837;343.5;7587;-17325;0.9656713;0.033650636;-0.242692468;1169199843
-239.865391;343.5;7587;-17332;0.9585333;0.012236595;-0.2569685;1169222289
-239.837996;343.5;7587;-17338;0.95547416;0.0030591488;-0.25594878;1169249684
-239.808514;343.5;7587;-17338;0.961592464;0.012236595;-0.23657418;1169279166
-239.786478;343.5;7593;-17325;0.96363184;0.03569007;-0.22739672;1169301202
-239.758767;343.5625;7593;;525;298;4247;1169328913
-239.736532;343.5625;7587;-17313;0.96261216;0.04588723;-0.247791052;1169351148
-239.714444;343.5625;7587;-17313;0.959553;0.031611204;-0.2630868;1169373236
-239.687611;343.5625;7587;-17319;0.95649384;0.0193746092;-0.2569685;1169400069
-239.665278;343.5;7587;-17325;0.961592464;0.009177446;-0.237593884;1169422402
-239.638231;343.5;7587;-17332;0.96261216;0.01631546;-0.226377008;1169449449
-239.588330;343.5;7587;-17319;0.9605727;0.053025244;-0.24983048;1169499350
-239.565024;343.5;7587;-17313;0.9605727;0.04588723;-0.2641065;1169522656
-239.538379;343.5;7581;-17319;0.9575136;0.026512622;-0.2641065;1169549301
-239.516113;343.5;7587;-17332;0.9605727;0.012236595;-0.242692468;1169571567
-239.488101;343.5;7587;-17344;0.961592464;0.0030591488;-0.232495316;1169599579
-239.464814;343.5;7587;-17344;0.96363184;0.018354892;-0.22331786;1169622866
-239.432100;343.5;7587;-17338;0.959553;0.046906948;-0.24983048;1169655580
-239.407677;343.5;7587;-17338;0.9605727;0.04078865;-0.26002764;1169680003
-239.378172;343.5;7587;-17344;0.959553;0.031611204;-0.25594878;1169709508
-239.357103;343.5625;7593;-17344;0.96261216;0.00815773;-0.24065304;1169730577
-239.326216;343.5625;7593;-17350;0.96363184;0.010197163;-0.22943616;1169761464
-239.298248;343.5625;7593;-17344;0.9646516;0.022433758;-0.22841644;1169789432
-239.275332;343.5625;7593;-17338;0.96363184;0.0377295;-0.2386136;1169812348
-239.248325;343.625;7593;-17338;0.9605727;0.0438478;-0.2579882;1169839355
-239.218633;343.625;7587;-17332;0.959553;0.029571772;-0.25492908;1169869047
-239.187921;343.625;7593;-17332;0.96261216;0.01631546;-0.23963332;1169899759
-239.158699;343.625;7593;-17332;0.96771068;0.01631546;-0.22433758;1169928981
-239.118232;343.5625;7587;-17325;0.96261216;0.034670352;-0.24065304;1169969448
-239.087733;343.625;7587;-17325;0.959553;0.04078865;-0.2569685;1169999947
-239.065881;343.625;7587;-17319;0.9585333;0.030591488;-0.25390936;1170021799
-239.008150;343.625;7587;-17325;0.96363184;0.017335176;-0.23555446;1170079530
-238.978066;343.625;7587;-17325;0.96363184;0.022433758;-0.23351502;1170109614
-238.948669;343.625;7581;-17325;0.9605727;0.034670352;-0.25390936;1170139011
-238.925568;343.625;7581;;672;337;4246;1170162112
-238.898076;343.625;7581;-17325;0.9605727;0.028552056;-0.25390936;1170189604
-238.875617;343.625;7581;-17319;0.961592464;0.0193746092;-0.23657418;1170212063
-238.848266;343.625;7581;-17325;0.96363184;0.013256311;-0.2314756;1170239414
-238.818177;343.625;7581;-17325;0.9646516;0.020394326;-0.23657418;1170269503
-238.768763;343.625;7581;-17313;0.959553;0.0377295;-0.2508502;1170318917
-238.746527;343.6875;7581;-17313;0.961592464;0.034670352;-0.23963332;1170341153
-238.718451;343.6875;7581;-17313;0.96363184;0.02447319;-0.23453474;1170369229
-238.643466;343.6875;7581;-17313;0.9605727;0.031611204;-0.25390936;1170444214
-238.618162;343.6875;7581;-17313;0.959553;0.033650636;-0.24983048;1170469518
-238.568560;343.6875;7581;-17307;0.9656713;0.030591488;-0.23657418;1170519120
-238.545631;343.6875;7581;-17313;0.9646516;0.020394326;-0.23045588;1170542049
-238.518380;343.6875;7581;-17313;0.9605727;0.0193746092;-0.24065304;1170569300
-238.468550;343.6875;7581;-17313;0.96363184;0.029571772;-0.25390936;1170619130
-238.445313;343.6875;7581;-17313;0.96261216;0.036709784;-0.2447319;1170642367
-238.417853;343.6875;7581;-17313;0.96363184;0.026512622;-0.23351502;1170669827
-238.395558;343.6875;7581;-17313;0.96363184;0.021414042;-0.232495316;1170692122
-238.368513;343.6875;7581;-17313;0.959553;0.012236595;-0.232495316;1170719167
-238.346592;343.6875;7581;-17307;0.9585333;0.018354892;-0.247791052;1170741088
-238.317822;343.75;7581;-17300;0.9575136;0.03569007;-0.25390936;1170769858
-238.295857;343.75;7581;-17300;0.96261216;0.041808368;-0.2447319;1170791823
-238.268423;343.75;7581;-17300;0.961592464;0.0377295;-0.23555446;1170819257
-238.217994;343.75;7581;-17300;0.96261216;0.018354892;-0.23453474;1170869686
-238.187425;343.75;7581;-17300;0.959553;0.021414042;-0.2508502;1170900255
-238.165212;343.75;7581;-17300;0.961592464;0.03263092;-0.25186992;1170922468
-238.138346;343.75;7581;-17300;0.96363184;0.03263092;-0.2386136;1170949334
-238.116325;343.75;7581;-17300;0.96363184;0.034670352;-0.23453474;1170971355
-238.094469;343.75;7581;-17300;0.96363184;0.028552056;-0.23555446;1170993211
-238.068254;343.75;7581;-17307;0.961592464;0.017335176;-0.23963332;1171019426
-238.047047;343.75;7581;-17307;0.959553;0.015295744;-0.25492908;1171040633
-238.008207;343.75;7581;-17307;0.9605727;0.02447319;-0.25186992;1171079473
-237.984847;343.75;7581;-17307;0.96261216;0.033650636;-0.23963332;1171102833
-237.937092;343.75;7581;-17307;0.9646516;0.02753234;-0.232495316;1171150588
-237.912801;343.75;7581;-17307;0.959553;0.0193746092;-0.24575162;1171174879
-237.885536;343.75;7581;-17300;0.9585333;0.011216879;-0.25288964;1171202144
-237.858627;343.75;7581;-17300;0.9605727;0.020394326;-0.2508502;1171229053
-237.817921;343.8125;7581;-17288;0.961592464;0.039768936;-0.24167276;1171269759
-237.787407;343.8125;7581;-17288;0.9656713;0.04078865;-0.23351502;1171300273
-237.765941;343.8125;7581;-17294;0.96261216;0.02447319;-0.23657418;1171321739
-237.743127;343.8125;7581;-17294;0.9605727;0.018354892;-0.24371218;1171344553
-237.718057;343.8125;7581;-17294;0.9605727;0.018354892;-0.248810768;1171369623
-237.687819;343.8125;7581;-17288;0.9605727;0.025492906;-0.24677134;1171399861
-237.665443;343.8125;7581;-17294;0.96363184;0.036709784;-0.23657418;1171422237
-237.643919;343.8125;7581;-17294;0.9656713;0.04078865;-0.23453474;1171443761
-237.618015;343.8125;7581;-17294;0.96363184;0.031611204;-0.23453474;1171469665
-237.568342;343.8125;7581;-17294;0.9605727;0.015295744;-0.25186992;1171519338
-237.546692;343.8125;7581;-17294;0.96261216;0.018354892;-0.24983048;1171540988
-237.517863;343.8125;7581;-17294;0.9605727;0.021414042;-0.24677134;1171569817
-237.468128;343.8125;7581;-17294;0.96261216;0.036709784;-0.2386136;1171619552
-237.445907;343.8125;7581;-17294;0.961592464;0.029571772;-0.247791052;1171641773
-237.422307;343.8125;7581;-17294;0.9605727;0.018354892;-0.247791052;1171665373
-237.362442;343.8125;7581;-17288;0.961592464;0.02753234;-0.23963332;1171725238
-237.337818;343.8125;7581;-17282;0.96363184;0.036709784;-0.24065304;1171749862
-237.308143;343.8125;7581;-17282;0.96261216;0.04078865;-0.23963332;1171779537
-237.277835;343.8125;7581;-17282;0.961592464;0.031611204;-0.24167276;1171809845
-237.251850;343.875;7581;-17288;0.96363184;0.020394326;-0.24575162;1171835830
-237.218080;343.875;7581;-17282;0.96261216;0.021414042;-0.24371218;1171869600
-237.170456;343.875;7581;-17282;0.9646516;0.036709784;-0.23453474;1171917224
-237.147665;343.875;7581;-17282;0.9646516;0.04078865;-0.24167276;1171940015
-237.104119;343.8125;7581;-17288;0.961592464;0.0193746092;-0.2508502;1171983561
-237.081986;343.8125;7581;-17288;0.961592464;0.015295744;-0.24677134;1172005694
-237.057894;343.8125;7581;-17288;0.9605727;0.015295744;-0.24167276;1172029786
-237.034808;343.8125;7581;-17282;0.961592464;0.029571772;-0.24065304;1172052872
-237.008347;343.8125;7581;-17282;0.959553;0.036709784;-0.24065304;1172079333
-236.987133;343.8125;7581;-17282;0.96261216;0.033650636;-0.24575162;1172100547
-236.964545;343.8125;7581;-17282;0.961592464;0.02753234;-0.24983048;1172123135
-236.927612;343.875;7581;-17282;0.9605727;0.018354892;-0.248810768;1172160068
-236.904938;343.875;7581;-17282;0.96363184;0.021414042;-0.24167276;1172182742
-236.883019;343.875;7581;-17282;0.96261216;0.02753234;-0.2386136;1172204661
-236.836888;343.875;7581;-17282;0.96261216;0.039768936;-0.24167276;1172250792
-236.808436;343.875;7581;-17282;0.9605727;0.031611204;-0.247791052;1172279244
-236.785369;343.875;7581;-17282;0.961592464;0.022433758;-0.248810768;1172302311
-236.760539;343.9375;7581;-17275;0.96261216;0.023453474;-0.24371218;1172327141
-236.737631;343.9375;7581;-17275;0.96363184;0.02447319;-0.2386136;1172350049
-236.713197;343.9375;7581;-17275;0.96261216;0.029571772;-0.2314756;1172374483
-236.687570;343.9375;7581;-17275;0.96363184;0.031611204;-0.23555446;1172400110
-236.658042;343.9375;7581;-17275;0.961592464;0.030591488;-0.24983048;1172429638
-236.604263;343.9375;7581;-17275;0.9646516;0.021414042;-0.23555446;1172483417
-236.582325;343.9375;7581;-17275;0.96261216;0.023453474;-0.23351502;1172505355
-236.558048;343.4375;7581;-17275;0.9605727;0.028552056;-0.23555446;1172529632
-236.487544;343.3125;7581;-17275;0.96261216;0.02753234;-0.24575162;1172600136
-236.465871;343.25;7581;-17275;0.96261216;0.023453474;-0.24167276;1172621809
-236.441541;343.25;7581;-17275;0.96261216;0.020394326;-0.237593884;1172646139
-236.392328;343.125;7581;-17275;0.96363184;0.030591488;-0.24575162;1172695352
-236.367992;343.125;7581;-17275;0.9605727;0.0387492184;-0.25186992;1172719688
-236.345916;343.125;7581;-17275;0.96261216;0.029571772;-0.24677134;1172741764
-236.317586;343.125;7581;-17275;0.96261216;0.025492906;-0.23657418;1172770094
-236.287741;343.125;7581;-17275;0.96363184;0.018354892;-0.23657418;1172799939
-236.263986;343.125;7581;-17275;0.9646516;0.023453474;-0.242692468;1172823694
-236.198262;343.0625;7581;-17275;0.961592464;0.0387492184;-0.248810768;1172889418
-236.175162;343.0625;7581;-17282;0.96261216;0.02447319;-0.23657418;1172912518
-236.144704;343.125;7581;-17288;0.96261216;0.01631546;-0.232495316;1172942976
-236.118251;343.125;7581;-17288;0.96363184;0.018354892;-0.237593884;1172969429
-236.068027;343.125;7581;-17288;0.96363184;0.03263092;-0.24575162;1173019653
-236.037975;343.125;7581;-17288;0.96363184;0.028552056;-0.237593884;1173049705
-236.007764;343.25;7581;-17288;0.96363184;0.023453474;-0.237593884;1173079916
-235.984844;343.25;7581;-17288;0.96363184;0.0193746092;-0.24167276;1173102836
-235.958295;343.25;7581;-17288;0.9585333;0.025492906;-0.24677134;1173129385
-235.937018;343.25;7581;-17288;0.9605727;0.031611204;-0.25390936;1173150662
-235.907728;343.125;7581;-17288;0.961592464;0.03569007;-0.247791052;1173179952
-235.885391;343.125;7581;-17288;0.961592464;0.030591488;-0.24065304;1173202289
-235.835992;343.125;7581;-17288;0.96261216;0.018354892;-0.23963332;1173251688
-235.807806;343.1875;7581;-17288;0.961592464;0.025492906;-0.24575162;1173279874
-235.784475;343.1875;7581;-17288;0.9605727;0.029571772;-0.25186992;1173303205
-235.758209;343.0;7581;;613;322;4248;1173329471
-235.736827;343.0;7581;-17288;0.9646516;0.028552056;-0.2386136;1173350853
-235.707953;343.0;7581;-17288;0.96363184;0.023453474;-0.23963332;1173379727
-235.685914;343.0;7581;-17288;0.961592464;0.0193746092;-0.23963332;1173401766
-235.637668;343.0;7581;-17288;0.96261216;0.026512622;-0.247791052;1173450012
-235.614623;342.875;7581;-17288;0.9605727;0.034670352;-0.248810768;1173473057
-235.587492;342.875;7581;-17288;0.96261216;0.03569007;-0.2447319;1173500188
-235.565261;342.875;7581;-17288;0.96261216;0.026512622;-0.23555446;1173522419
-235.537881;342.875;7581;-17288;0.96261216;0.017335176;-0.23453474;1173549799
-235.516083;342.875;7581;-17288;0.961592464;0.018354892;-0.24575162;1173571597
-235.492422;342.875;7581;-17288;0.961592464;0.018354892;-0.24575162;1173595258
-235.467992;342.8125;7581;-17288;0.9605727;0.029571772;-0.24575162;1173619688
-235.446146;342.8125;7581;-17288;0.96363184;0.04078865;-0.2447319;1173641534
-235.418189;343.0;7581;-17288;0.96261216;0.036709784;-0.237593884;1173669491
-235.395466;343.0;7581;-17288;0.959553;0.022433758;-0.24065304;1173692214
-235.368288;343.0625;7581;-17288;0.961592464;0.020394326;-0.24065304;1173719392
-235.347112;343.0625;7581;-17288;0.961592464;0.0193746092;-0.247791052;1173740568
-235.287605;343.0625;7581;-17288;0.96363184;0.04078865;-0.2447319;1173800075
-235.265995;343.0625;7581;-17288;0.96363184;0.036709784;-0.23963332;1173821685
-235.235895;343.0625;7581;-17288;0.961592464;0.023453474;-0.24065304;1173851785
-235.187689;343.0625;7581;-17288;0.959553;0.015295744;-0.248810768;1173899991
-235.157870;343.0625;7581;-17288;0.961592464;0.028552056;-0.24677134;1173929810
-235.135330;343.0625;7581;-17288;0.96261216;0.0377295;-0.24167276;1173952350
-235.108242;343.0625;7581;-17288;0.96261216;0.033650636;-0.2386136;1173979438
-235.086302;343.0625;7581;-17288;0.96363184;0.025492906;-0.237593884;1174001378
-235.064174;343.0625;7581;-17288;0.959553;0.021414042;-0.2447319;1174023506
-235.038001;343.0625;7581;-17282;0.961592464;0.0193746092;-0.2447319;1174049679
-235.014881;343.0625;7581;-17282;0.96363184;0.023453474;-0.247791052;1174072799
-234.987647;343.0625;7581;-17282;0.96363184;0.030591488;-0.23963332;1174100033
-234.965242;343.125;7581;-17282;0.9646516;0.0387492184;-0.24065304;1174122438
-234.937619;343.125;7581;-17282;0.961592464;0.030591488;-0.24065304;1174150061
-234.907667;343.125;7581;-17282;0.961592464;0.021414042;-0.23963332;1174180013
-234.886018;343.125;7581;-17282;0.961592464;0.017335176;-0.24371218;1174201662
-234.864043;343.125;7581;-17282;0.961592464;0.020394326;-0.24575162;1174223637
-234.837609;343.125;7581;-17282;0.96363184;0.033650636;-0.24575162;1174250071
-234.807478;343.25;7581;-17282;0.96261216;0.033650636;-0.24371218;1174280202
-234.785989;343.25;7581;-17282;0.9605727;0.031611204;-0.237593884;1174301691
-234.707115;343.25;7581;-17282;0.959553;0.025492906;-0.25186992;1174380565
-234.683499;343.25;7581;-17282;0.96261216;0.033650636;-0.24575162;1174404181
-234.657906;343.25;7581;;285;219;4248;1174429774
-234.626065;343.25;7587;-17282;0.96261216;0.02447319;-0.23555446;1174461615
-234.597750;343.25;7587;-17282;0.961592464;0.021414042;-0.24677134;1174489930
-234.574694;343.25;7587;-17282;0.95649384;0.023453474;-0.25492908;1174512986
-234.548077;343.25;7587;-17282;0.961592464;0.02447319;-0.25288964;1174539603
-234.518413;343.25;7587;-17282;0.96261216;0.03263092;-0.2386136;1174569267
-234.495970;343.25;7587;-17282;0.96363184;0.028552056;-0.22943616;1174591710
-234.468006;343.25;7587;-17282;0.9646516;0.02447319;-0.23045588;1174619674
-234.437436;343.25;7587;-17282;0.961592464;0.021414042;-0.24677134;1174650244
-234.416077;343.25;7587;-17282;0.961592464;0.02447319;-0.24575162;1174671603
-234.367713;343.25;7587;-17282;0.96363184;0.030591488;-0.23555446;1174719967
-234.337153;343.25;7587;-17282;0.96363184;0.029571772;-0.23657418;1174750527
-234.314844;343.25;7587;-17282;0.9605727;0.025492906;-0.24575162;1174772836
-234.278478;343.25;7587;-17282;0.961592464;0.022433758;-0.24983048;1174809202
-234.254426;343.25;7587;-17282;0.961592464;0.023453474;-0.247791052;1174833254
-234.232189;343.25;7587;-17282;0.961592464;0.028552056;-0.24167276;1174855491
-234.207923;343.25;7587;-17282;0.9605727;0.02753234;-0.2386136;1174879757
-234.185874;343.25;7587;-17282;0.96363184;0.031611204;-0.24167276;1174901806
-234.157962;343.25;7587;;222;193;4248;1174929718
-234.135845;343.25;7587;-17282;0.9605727;0.022433758;-0.248810768;1174951835
-234.107734;343.25;7587;-17282;0.961592464;0.023453474;-0.2508502;1174979946
-234.084983;343.25;7587;-17282;0.9605727;0.02447319;-0.24065304;1175002697
-234.036060;343.25;7587;-17282;0.9646516;0.034670352;-0.23963332;1175051620
-234.006809;343.25;7587;-17282;0.96261216;0.030591488;-0.2508502;1175080871
-233.982494;343.25;7587;-17282;0.959553;0.026512622;-0.2508502;1175105186
-233.935748;343.25;7587;-17282;0.96363184;0.021414042;-0.232495316;1175151932
-233.907692;343.25;7587;-17282;0.961592464;0.02753234;-0.232495316;1175179988
-233.856080;343.25;7587;-17282;0.961592464;0.03263092;-0.24983048;1175231600
-233.833174;343.25;7587;-17282;0.961592464;0.02753234;-0.24983048;1175254506
-233.807080;343.25;7587;-17282;0.9605727;0.017335176;-0.24371218;1175280600
-233.784225;343.25;7587;-17282;0.96363184;0.017335176;-0.2314756;1175303455
-233.757522;343.25;7587;-17282;0.96363184;0.017335176;-0.23351502;1175330158
-233.736011;343.25;7581;-17282;0.961592464;0.029571772;-0.24167276;1175351669
-233.711553;343.25;7581;-17282;0.9605727;0.036709784;-0.2508502;1175376127
-233.657633;343.25;7581;-17282;0.9605727;0.023453474;-0.24371218;1175430047
-233.634632;343.25;7581;-17282;0.96363184;0.014276028;-0.23351502;1175453048
-233.607690;343.25;7581;-17282;0.96261216;0.018354892;-0.2314756;1175479990
-233.585367;343.25;7581;-17282;0.961592464;0.028552056;-0.247791052;1175502313
-233.559381;343.25;7581;;275;215;4252;1175528299
-233.537145;343.25;7581;-17282;0.9605727;0.03569007;-0.25390936;1175550535
-233.515359;343.25;7581;-17282;0.961592464;0.030591488;-0.24065304;1175572321
-233.494128;343.25;7581;;410;263;4249;1175593552
-233.447589;343.25;7581;-17282;0.96261216;0.022433758;-0.242692468;1175640091
-233.422520;343.25;7581;-17282;0.961592464;0.026512622;-0.248810768;1175665160
-233.397588;343.25;7581;-17282;0.959553;0.033650636;-0.25390936;1175690092
-233.375785;343.25;7581;-17282;0.961592464;0.03263092;-0.24167276;1175711895
-233.347803;343.25;7587;-17282;0.961592464;0.02753234;-0.23657418;1175739877
-233.304225;343.25;7587;-17282;0.96261216;0.022433758;-0.242692468;1175783455
-233.282144;343.25;7581;-17282;0.959553;0.021414042;-0.2508502;1175805536
-233.257794;343.25;7581;;358;246;4249;1175829886
-233.227588;343.25;7587;-17282;0.9605727;0.028552056;-0.2447319;1175860092
-233.175370;343.25;7587;-17282;0.96261216;0.028552056;-0.23045588;1175912310
-233.151994;343.25;7587;-17282;0.96261216;0.021414042;-0.24371218;1175935686
-233.105377;343.25;7587;-17282;0.961592464;0.02447319;-0.2569685;1175982303
-233.082792;343.25;7587;-17282;0.96261216;0.02753234;-0.242692468;1176004888
-233.027719;343.25;7587;-17282;0.96363184;0.036709784;-0.22943616;1176059961
-232.997537;343.25;7587;-17282;0.961592464;0.026512622;-0.24065304;1176090143
-232.974597;343.25;7587;-17282;0.9605727;0.022433758;-0.25288964;1176113083
-232.947745;343.25;7587;-17282;0.9605727;0.020394326;-0.25492908;1176139935
-232.897632;343.25;7587;-17282;0.96363184;0.033650636;-0.237593884;1176190048
-232.874030;343.25;7587;-17282;0.96363184;0.034670352;-0.2314756;1176213650
-232.847947;343.25;7587;-17282;0.959553;0.029571772;-0.23963332;1176239733
-232.819821;343.25;7587;-17282;0.959553;0.021414042;-0.2508502;1176267859
-232.796919;343.25;7587;-17282;0.9585333;0.017335176;-0.25390936;1176290761
-232.768048;343.25;7587;-17282;0.96261216;0.02447319;-0.242692468;1176319632
-232.745875;343.25;7587;-17282;0.9646516;0.03569007;-0.23657418;1176341805
-232.697333;343.3125;7587;-17275;0.96261216;0.029571772;-0.24065304;1176390347
-232.667686;343.3125;7587;-17275;0.9605727;0.022433758;-0.24371218;1176419994
-232.637498;343.3125;7587;-17275;0.9605727;0.018354892;-0.2508502;1176450182
-232.587971;343.3125;7587;-17275;0.9605727;0.023453474;-0.24167276;1176499709
-232.563880;343.3125;7587;-17269;0.96363184;0.0387492184;-0.23351502;1176523800
-232.537713;343.3125;7587;-17269;0.96363184;0.033650636;-0.24065304;1176549967
-232.507252;343.3125;7587;-17269;0.961592464;0.017335176;-0.248810768;1176580428
-232.485625;343.3125;7587;-17269;0.959553;0.018354892;-0.247791052;1176602055
-232.407449;343.3125;7587;-17269;0.96363184;0.036709784;-0.23657418;1176680231
-232.385422;343.3125;7587;-17269;0.96363184;0.03263092;-0.24371218;1176702258
-232.357659;343.3125;7587;-17275;0.96261216;0.022433758;-0.248810768;1176730021
-232.335011;343.3125;7587;-17275;0.9575136;0.020394326;-0.247791052;1176752669
-232.308045;343.3125;7587;-17275;0.96363184;0.021414042;-0.24167276;1176779635
-232.285968;343.3125;7587;-17275;0.96363184;0.029571772;-0.237593884;1176801712
-232.257756;343.3125;7587;-17275;0.961592464;0.03263092;-0.24167276;1176829924
-232.234361;343.3125;7587;-17275;0.961592464;0.029571772;-0.2447319;1176853319
-232.207878;343.3125;7587;-17275;0.961592464;0.022433758;-0.248810768;1176879802
-232.185996;343.3125;7587;-17275;0.9605727;0.0193746092;-0.248810768;1176901684
-232.108036;343.3125;7587;-17275;0.96261216;0.031611204;-0.24167276;1176979644
-232.063702;343.3125;7587;-17269;0.9605727;0.02753234;-0.242692468;1177023978
-232.035511;343.3125;7587;-17269;0.959553;0.01631546;-0.24371218;1177052169
-232.007584;343.3125;7587;-17269;0.96363184;0.023453474;-0.242692468;1177080096
-231.985963;343.3125;7587;-17275;0.9646516;0.033650636;-0.24167276;1177101717
-231.937066;343.3125;7587;-17275;0.961592464;0.033650636;-0.24167276;1177150614
-231.907498;343.3125;7587;-17275;0.96261216;0.025492906;-0.24167276;1177180182
-231.885227;343.3125;7587;-17275;0.9605727;0.0193746092;-0.2447319;1177202453
-231.831895;343.3125;7587;-17275;0.961592464;0.030591488;-0.24167276;1177255785
-231.807432;343.3125;7587;-17275;0.96261216;0.028552056;-0.23963332;1177280248
-231.786034;343.3125;7587;-17275;0.96363184;0.033650636;-0.237593884;1177301646
-231.758462;343.3125;7587;;605;320;4247;1177329218
-231.697058;343.3125;7587;-17275;0.961592464;0.020394326;-0.247791052;1177390622
-231.674550;343.3125;7587;-17275;0.96261216;0.029571772;-0.24371218;1177413130
-231.636892;343.3125;7587;-17275;0.96261216;0.033650636;-0.24065304;1177450788
-231.614719;343.3125;7587;-17275;0.9646516;0.026512622;-0.24167276;1177472961
-231.587741;343.3125;7587;-17269;0.96261216;0.02447319;-0.24065304;1177499939
-231.565056;343.3125;7587;-17269;0.96261216;0.021414042;-0.24677134;1177522624
-231.537725;343.3125;7587;-17269;0.9605727;0.02447319;-0.24167276;1177549955
-231.507155;343.375;7587;-17269;0.96261216;0.033650636;-0.24065304;1177580525
-231.486143;343.375;7587;-17269;0.9646516;0.03263092;-0.237593884;1177601537
-231.458115;343.375;7587;-17269;0.96363184;0.029571772;-0.2386136;1177629565
-231.430966;343.375;7587;-17269;0.9605727;0.022433758;-0.242692468;1177656714
-231.407334;343.375;7587;-17269;0.96261216;0.021414042;-0.242692468;1177680346
-231.385307;343.375;7587;-17269;0.961592464;0.02753234;-0.24575162;1177702373
-231.361308;343.375;7587;-17269;0.961592464;0.026512622;-0.24677134;1177726372
-231.337430;343.3125;7587;-17269;0.9605727;0.028552056;-0.24065304;1177750250
-231.307511;343.3125;7587;-17269;0.9656713;0.028552056;-0.242692468;1177780169
-231.286062;343.3125;7587;-17269;0.959553;0.022433758;-0.2447319;1177801618
-231.245934;343.3125;7587;-17269;0.961592464;0.02447319;-0.247791052;1177841746
-231.221242;343.3125;7587;-17269;0.96261216;0.02753234;-0.24575162;1177866438
-231.197493;343.3125;7587;-17269;0.96363184;0.029571772;-0.24167276;1177890187
-231.175715;343.3125;7587;-17269;0.961592464;0.025492906;-0.2386136;1177911965
-231.148034;343.3125;7587;-17269;0.961592464;0.02447319;-0.24167276;1177939646
-231.117629;343.375;7587;-17269;0.96363184;0.029571772;-0.24575162;1177970051
-231.095635;343.375;7587;-17269;0.959553;0.022433758;-0.24983048;1177992045
-231.067830;343.375;7587;-17269;0.961592464;0.022433758;-0.23963332;1178019850
-231.045901;343.375;7587;-17269;0.96363184;0.026512622;-0.23453474;1178041779
-231.017384;343.375;7587;-17269;0.961592464;0.031611204;-0.237593884;1178070296
-230.994694;343.375;7587;-17269;0.96261216;0.028552056;-0.242692468;1178092986
-230.967713;343.375;7587;-17269;0.96261216;0.026512622;-0.24677134;1178119967
-230.946085;343.375;7587;-17269;0.9646516;0.020394326;-0.24065304;1178141595
-230.923920;343.375;7587;-17269;0.961592464;0.020394326;-0.24065304;1178163760
-230.887176;343.375;7587;-17269;0.961592464;0.031611204;-0.247791052;1178200504
-230.857175;343.375;7587;-17269;0.96363184;0.029571772;-0.24167276;1178230505
-230.817270;343.375;7587;-17269;0.961592464;0.028552056;-0.24371218;1178270410
-230.787052;343.375;7587;-17269;0.961592464;0.030591488;-0.247791052;1178300628
-230.764792;343.375;7587;-17269;0.9605727;0.023453474;-0.24677134;1178322888
-230.737541;343.375;7587;-17269;0.961592464;0.0193746092;-0.24167276;1178350139
-230.707253;343.375;7587;-17269;0.96261216;0.022433758;-0.2386136;1178380427
-230.680900;343.375;7587;-17269;0.96363184;0.031611204;-0.24371218;1178406780
-230.597163;343.375;7587;-17269;0.9605727;0.02447319;-0.24167276;1178490517
-230.575654;343.375;7587;-17269;0.96261216;0.020394326;-0.237593884;1178512026
-230.547755;343.375;7587;-17269;0.96261216;0.023453474;-0.242692468;1178539925
-230.517754;343.375;7587;-17269;0.96363184;0.0377295;-0.2447319;1178569926
-230.467627;343.375;7587;-17269;0.961592464;0.031611204;-0.24575162;1178620053
-230.437554;343.375;7587;-17269;0.9646516;0.012236595;-0.23657418;1178650126
-230.407598;343.375;7587;-17269;0.9605727;0.0193746092;-0.24677134;1178680082
-230.374529;343.375;7587;-17269;0.96363184;0.0377295;-0.248810768;1178713151
-230.322919;343.3125;7587;-17275;0.96363184;0.030591488;-0.2447319;1178764761
-230.286920;343.375;7587;-17282;0.96363184;0.018354892;-0.24167276;1178800760
-230.264477;343.375;7587;-17282;0.961592464;0.023453474;-0.247791052;1178823203
-230.238711;343.375;7587;-17275;0.9585333;0.02447319;-0.24065304;1178848969
-230.217065;343.375;7587;-17275;0.9605727;0.030591488;-0.247791052;1178870615
-230.194231;343.375;7587;-17275;0.96363184;0.030591488;-0.24167276;1178893449
-230.167552;343.375;7587;-17275;0.961592464;0.028552056;-0.24371218;1178920128
-230.145378;343.375;7587;-17275;0.961592464;0.023453474;-0.24167276;1178942302
-230.117511;343.375;7587;-17275;0.96261216;0.017335176;-0.2386136;1178970169
-230.095695;343.375;7587;-17275;0.9605727;0.015295744;-0.24065304;1178991985
-230.067649;343.375;7587;-17269;0.96261216;0.029571772;-0.2386136;1179020031
-230.046069;343.375;7587;-17263;0.961592464;0.04078865;-0.24677134;1179041611
-230.017295;343.375;7587;-17263;0.96363184;0.0387492184;-0.2447319;1179070385
-229.994719;343.375;7587;-17263;0.96261216;0.030591488;-0.24983048;1179092961
-229.967582;343.375;7587;-17263;0.96261216;0.021414042;-0.24065304;1179120098
-229.946086;343.375;7587;-17263;0.9605727;0.018354892;-0.24575162;1179141594
-229.867528;343.375;7587;-17263;0.961592464;0.0377295;-0.24167276;1179220152
-229.846042;343.375;7587;-17263;0.9605727;0.036709784;-0.24983048;1179241638
-229.817266;343.375;7587;-17269;0.961592464;0.033650636;-0.24575162;1179270414
-229.794034;343.375;7587;-17269;0.96363184;0.013256311;-0.23963332;1179293646
-229.767519;343.375;7587;-17269;0.961592464;0.018354892;-0.2447319;1179320161
-229.745252;343.375;7587;-17269;0.96261216;0.02447319;-0.23963332;1179342428
-229.696011;343.375;7587;-17269;0.961592464;0.03263092;-0.23963332;1179391669
-229.674051;343.375;7587;-17269;0.96363184;0.028552056;-0.24371218;1179413629
-229.647307;343.4375;7587;-17269;0.961592464;0.022433758;-0.24371218;1179440373
-229.617347;343.4375;7587;-17269;0.9605727;0.015295744;-0.242692468;1179470333
-229.587194;343.4375;7587;-17263;0.9656713;0.020394326;-0.23453474;1179500486
-229.565042;343.4375;7587;-17263;0.9605727;0.031611204;-0.2386136;1179522638
-229.540957;343.4375;7587;-17257;0.96261216;0.0377295;-0.24677134;1179546723
-229.488391;343.4375;7587;-17257;0.96261216;0.03263092;-0.24371218;1179599289
-229.437540;343.4375;7587;-17257;0.96363184;0.021414042;-0.242692468;1179650140
-229.407471;343.4375;7587;-17257;0.96261216;0.02447319;-0.24371218;1179680209
-229.377097;343.4375;7587;-17257;0.961592464;0.03263092;-0.25288964;1179710583
-229.349312;343.4375;7587;-17257;0.96363184;0.036709784;-0.24983048;1179738368
-229.317215;343.4375;7587;-17257;0.9605727;0.02753234;-0.242692468;1179770465
-229.287618;343.4375;7587;-17263;0.961592464;0.013256311;-0.24065304;1179800062
-229.266177;343.4375;7587;-17263;0.9646516;0.01631546;-0.24371218;1179821503
-229.237175;343.4375;7587;-17263;0.96363184;0.02447319;-0.24167276;1179850505
-229.214684;343.4375;7587;-17263;0.9605727;0.030591488;-0.24575162;1179872996
-229.187264;343.4375;7587;-17263;0.961592464;0.034670352;-0.24983048;1179900416
-229.165232;343.4375;7587;-17263;0.9585333;0.030591488;-0.24167276;1179922448
-229.143669;343.4375;7587;-17263;0.9646516;0.0193746092;-0.2386136;1179944011
-229.117290;343.4375;7587;-17263;0.96363184;0.018354892;-0.24167276;1179970390
-229.095672;343.4375;7587;-17263;0.96363184;0.023453474;-0.24065304;1179992008
-229.074174;343.4375;7587;-17257;0.961592464;0.029571772;-0.242692468;1180013506
-229.035273;343.4375;7587;-17257;0.96261216;0.0377295;-0.24371218;1180052407
-229.013646;343.4375;7587;-17257;0.96261216;0.041808368;-0.24575162;1180074034
-228.987427;343.4375;7587;-17257;0.96261216;0.029571772;-0.24065304;1180100253
-228.966157;343.4375;7587;-17257;0.96261216;0.020394326;-0.2386136;1180121523
-228.945092;343.4375;7587;-17257;0.96261216;0.022433758;-0.24371218;1180142588
-228.895239;343.4375;7587;-17257;0.96363184;0.03569007;-0.247791052;1180192441
-228.868077;343.4375;7587;-17257;0.96363184;0.0377295;-0.24167276;1180219603
-228.846178;343.4375;7587;-17263;0.9605727;0.023453474;-0.24167276;1180241502
-228.824818;343.4375;7587;-17263;0.96261216;0.020394326;-0.2447319;1180262862
-228.797185;343.4375;7587;-17263;0.9605727;0.014276028;-0.248810768;1180290495
-228.775257;343.4375;7587;-17263;0.9605727;0.0193746092;-0.248810768;1180312423
-228.747993;343.4375;7587;-17263;0.961592464;0.02753234;-0.24575162;1180339687
-228.724838;343.4375;7587;-17263;0.96261216;0.030591488;-0.23657418;1180362842
-228.698559;343.4375;7587;-17263;0.9646516;0.031611204;-0.23963332;1180389121
-228.674997;343.4375;7587;-17263;0.96363184;0.02447319;-0.2447319;1180412683
-228.623970;343.5;7587;-17257;0.9605727;0.022433758;-0.24371218;1180463710
-228.593494;343.5;7587;-17257;0.961592464;0.031611204;-0.23963332;1180494186
-228.567684;343.5;7587;-17250;0.96261216;0.036709784;-0.24167276;1180519996
-228.545639;343.5;7587;-17250;0.9646516;0.03569007;-0.24065304;1180542041
-228.517394;343.5;7587;-17250;0.96363184;0.030591488;-0.242692468;1180570286
-228.467726;343.5;7587;-17250;0.961592464;0.02447319;-0.237593884;1180619954
-228.437612;343.5;7587;-17250;0.96363184;0.028552056;-0.2386136;1180650068
-228.407214;343.5;7587;-17250;0.9656713;0.03569007;-0.23963332;1180680466
-228.385517;343.5;7587;-17250;0.961592464;0.029571772;-0.24167276;1180702163
-228.364122;343.5;7587;-17257;0.959553;0.02753234;-0.2447319;1180723558
-228.336997;343.5;7587;-17257;0.96363184;0.0193746092;-0.24167276;1180750683
-228.307331;343.5;7587;-17257;0.961592464;0.0193746092;-0.23963332;1180780349
-228.284821;343.5;7587;-17257;0.96261216;0.022433758;-0.2386136;1180802859
-228.257873;343.5;7587;-17263;0.9605727;0.026512622;-0.24371218;1180829807
-228.235693;343.4375;7587;-17263;0.96261216;0.028552056;-0.24677134;1180851987
-228.207571;343.4375;7587;-17263;0.96261216;0.026512622;-0.24371218;1180880109
-228.151918;343.4375;7587;-17263;0.96261216;0.022433758;-0.242692468;1180935762
-228.104463;343.4375;7587;-17257;0.96363184;0.026512622;-0.24167276;1180983217
-228.082362;343.4375;7587;-17257;0.96261216;0.031611204;-0.24371218;1181005318
-228.057628;343.4375;7587;-17257;0.9605727;0.036709784;-0.24371218;1181030052
-228.035900;343.4375;7587;-17257;0.961592464;0.0387492184;-0.25186992;1181051780
-228.014026;343.4375;7587;-17257;0.96261216;0.03569007;-0.24677134;1181073654
-227.987299;343.4375;7587;-17263;0.96261216;0.028552056;-0.242692468;1181100381
-227.964975;343.5;7587;-17263;0.96261216;0.025492906;-0.23555446;1181122705
-227.937541;343.5;7587;-17263;0.96261216;0.02447319;-0.23555446;1181150139
-227.907423;343.5;7587;-17263;0.96363184;0.025492906;-0.2447319;1181180257
-227.882167;343.5;7587;-17263;0.9605727;0.034670352;-0.24371218;1181205513
-227.857514;343.5;7587;-17263;0.961592464;0.03263092;-0.24575162;1181230166
-227.836051;343.5;7587;-17263;0.96261216;0.022433758;-0.2386136;1181251629
-227.807359;343.5;7587;-17263;0.961592464;0.018354892;-0.23351502;1181280321
-227.782023;343.5;7587;-17263;0.96363184;0.01631546;-0.23657418;1181305657
-227.736289;343.5;7587;-17263;0.961592464;0.02753234;-0.24677134;1181351391
-227.707048;343.4375;7587;-17257;0.961592464;0.030591488;-0.24677134;1181380632
-227.683505;343.4375;7587;-17257;0.96261216;0.031611204;-0.242692468;1181404175
-227.657702;343.4375;7587;-17257;0.96363184;0.02753234;-0.23963332;1181429978
-227.617856;343.4375;7587;-17257;0.961592464;0.02447319;-0.237593884;1181469824
-227.587182;343.4375;7587;-17257;0.9605727;0.02753234;-0.247791052;1181500498
-227.564481;343.4375;7587;-17257;0.96261216;0.036709784;-0.25186992;1181523199
-227.537721;343.4375;7587;-17257;0.9605727;0.0387492184;-0.24983048;1181549959
-227.507397;343.4375;7587;-17257;0.96363184;0.04078865;-0.24677134;1181580283
-227.484860;343.5;7587;-17263;0.96363184;0.025492906;-0.24167276;1181602820
-227.457725;343.5;7587;-17269;0.96261216;0.021414042;-0.237593884;1181629955
-227.435200;343.5;7587;-17269;0.961592464;0.020394326;-0.24167276;1181652480
-227.414225;343.5;7587;-17269;0.961592464;0.023453474;-0.24371218;1181673455
-227.387350;343.5;7587;-17269;0.9605727;0.029571772;-0.24677134;1181700330
-227.365463;343.5;7587;-17269;0.961592464;0.030591488;-0.24065304;1181722217
-227.339135;343.5;7587;-17269;0.96363184;0.028552056;-0.23963332;1181748545
-227.307488;343.5;7587;-17269;0.96363184;0.020394326;-0.23963332;1181780192
-227.266887;343.5;7587;-17269;0.96261216;0.01631546;-0.24065304;1181820793
-227.244147;343.5;7587;-17269;0.9605727;0.025492906;-0.24677134;1181843533
-227.217407;343.5;7587;-17269;0.96261216;0.026512622;-0.24065304;1181870273
-227.186414;343.5;7587;-17263;0.9646516;0.03569007;-0.23963332;1181901266
-227.157871;343.5;7587;-17263;0.961592464;0.034670352;-0.2386136;1181929809
-227.127557;343.5;7587;-17263;0.96261216;0.030591488;-0.24677134;1181960123
-227.098513;343.5;7587;-17263;0.961592464;0.018354892;-0.24677134;1181989167
-227.076706;343.5;7587;-17263;0.959553;0.02753234;-0.24371218;1182010974
-227.054944;343.5;7587;-17263;0.96261216;0.031611204;-0.24167276;1182032736
-227.033005;343.5;7587;-17263;0.96261216;0.0377295;-0.24167276;1182054675
-226.975470;343.4375;7587;-17269;0.96261216;0.025492906;-0.25186992;1182112210
-226.932015;343.4375;7587;-17275;0.961592464;0.01631546;-0.24167276;1182155665
-226.907448;343.4375;7587;-17275;0.96363184;0.0193746092;-0.23555446;1182180232
-226.857408;343.4375;7587;-17275;0.9605727;0.03569007;-0.248810768;1182230272
-226.835910;343.4375;7587;-17275;0.9585333;0.02753234;-0.2508502;1182251770
-226.807046;343.4375;7587;-17275;0.9605727;0.010197163;-0.24677134;1182280634
-226.777421;343.4375;7587;-17275;0.9605727;0.015295744;-0.23351502;1182310259
-226.747458;343.4375;7587;-17269;0.96363184;0.02753234;-0.23555446;1182340222
-226.723969;343.4375;7587;-17263;0.9646516;0.042828084;-0.248810768;1182363711
-226.697624;343.4375;7587;;1063;424;4251;1182390056
-226.667392;343.4375;7587;-17263;0.9605727;0.0193746092;-0.24983048;1182420288
-226.645107;343.4375;7587;-17263;0.961592464;0.025492906;-0.237593884;1182442573
-226.607485;343.4375;7587;-17263;0.96261216;0.02753234;-0.23555446;1182480195
-226.584057;343.4375;7587;-17263;0.9605727;0.036709784;-0.24677134;1182503623
-226.557706;343.4375;7587;-17263;0.959553;0.046906948;-0.2579882;1182529974
-226.535090;343.4375;7587;-17269;0.961592464;0.028552056;-0.25390936;1182552590
-226.507126;343.4375;7587;-17275;0.96261216;0.021414042;-0.24575162;1182580554
-226.477318;343.4375;7587;-17275;0.9646516;0.012236595;-0.22841644;1182610362
-226.437562;343.4375;7587;-17282;0.9646516;0.030591488;-0.23963332;1182650118
-226.416209;343.4375;7587;-17282;0.961592464;0.03569007;-0.247791052;1182671471
-226.382275;343.4375;7587;-17282;0.959553;0.025492906;-0.2641065;1182705405
-226.357250;343.375;7587;-17288;0.9605727;0.022433758;-0.25186992;1182730430
-226.335777;343.4375;7593;-17282;0.966691;0.017335176;-0.22739672;1182751903
-226.307974;343.375;7593;-17288;0.96261216;0.017335176;-0.22331786;1182779706
-226.286101;343.375;7593;-17288;0.961592464;0.02753234;-0.23657418;1182801579
-226.263882;343.375;7587;-17288;0.96363184;0.033650636;-0.25288964;1182823798
-226.237168;343.375;7587;-17288;0.95649384;0.0377295;-0.25900792;1182850512
-226.207285;343.4375;7587;-17282;0.9605727;0.034670352;-0.25288964;1182880395
-226.185531;343.4375;7587;-17282;0.961592464;0.023453474;-0.2314756;1182902149
-226.164031;343.4375;7587;-17282;0.9646516;0.020394326;-0.2314756;1182923649
-226.137659;343.4375;7593;-17282;0.96363184;0.022433758;-0.2314756;1182950021
-226.116095;343.4375;7587;-17282;0.96261216;0.034670352;-0.24167276;1182971585
-226.067727;343.4375;7587;-17275;0.96363184;0.034670352;-0.25492908;1183019953
-226.046022;343.4375;7587;-17275;0.96261216;0.030591488;-0.25288964;1183041658
-226.023840;343.4375;7587;-17275;0.96261216;0.021414042;-0.23657418;1183063840
-225.977057;343.4375;7587;-17282;0.961592464;0.020394326;-0.232495316;1183110623
-225.947415;343.4375;7587;-17282;0.9605727;0.022433758;-0.24167276;1183140265
-225.924033;343.4375;7587;-17282;0.9605727;0.02753234;-0.24371218;1183163647
-225.886126;343.4375;7587;-17282;0.9605727;0.036709784;-0.25390936;1183201554
-225.865204;343.4375;7587;-17282;0.961592464;0.031611204;-0.24575162;1183222476
-225.837293;343.4375;7587;-17282;0.96261216;0.018354892;-0.23657418;1183250387
-225.815242;343.4375;7587;-17282;0.96261216;0.01631546;-0.232495316;1183272438
-225.787269;343.4375;7587;-17282;0.961592464;0.023453474;-0.23657418;1183300411
-225.765388;343.4375;7587;-17282;0.9605727;0.03263092;-0.24677134;1183322292
-225.743691;343.4375;7587;-17282;0.96363184;0.03569007;-0.248810768;1183343989
-225.717448;343.4375;7587;-17282;0.96261216;0.0377295;-0.24983048;1183370232
-225.687354;343.4375;7587;-17275;0.96261216;0.0387492184;-0.247791052;1183400326
-225.657749;343.4375;7587;-17282;0.959553;0.02753234;-0.24167276;1183429931
-225.635879;343.4375;7587;-17282;0.96261216;0.01631546;-0.23555446;1183451801
-225.607273;343.4375;7587;-17288;0.9605727;0.017335176;-0.24065304;1183480407
-225.585117;343.4375;7587;-17288;0.9605727;0.036709784;-0.25186992;1183502563
-225.563806;343.4375;7587;-17288;0.961592464;0.0438478;-0.25288964;1183523874
-225.516494;343.375;7587;-17294;0.96363184;0.026512622;-0.23963332;1183571186
-225.490430;343.375;7587;-17300;0.96261216;0.013256311;-0.23963332;1183597250
-225.467374;343.375;7587;-17307;0.9585333;0.010197163;-0.24167276;1183620306
-225.446043;343.375;7587;-17300;0.95649384;0.023453474;-0.248810768;1183641637
-225.417199;343.375;7581;-17300;0.959553;0.034670352;-0.248810768;1183670481
-225.387145;343.375;7581;-17300;0.96363184;0.031611204;-0.24167276;1183700535
-225.363947;343.375;7581;-17300;0.96363184;0.023453474;-0.23453474;1183723733
-225.337636;343.375;7581;-17300;0.961592464;0.020394326;-0.2386136;1183750044
-225.307793;343.375;7581;-17300;0.961592464;0.021414042;-0.24575162;1183779887
-225.277268;343.375;7581;-17294;0.96363184;0.030591488;-0.24167276;1183810412
-225.255480;343.375;7581;-17294;0.961592464;0.0377295;-0.24983048;1183832200
-225.234089;343.375;7581;-17294;0.9605727;0.0387492184;-0.24677134;1183853591
-225.207941;343.375;7581;-17294;0.96363184;0.036709784;-0.2386136;1183879739
-225.177605;343.375;7581;-17294;0.9646516;0.023453474;-0.23657418;1183910075
-225.131887;343.375;7581;-17294;0.961592464;0.022433758;-0.24575162;1183955793
-225.107277;343.375;7581;-17294;0.9605727;0.02447319;-0.242692468;1183980403
-225.051904;343.375;7581;-17300;0.96363184;0.030591488;-0.2386136;1184035776
-225.030059;343.375;7581;-17300;0.961592464;0.02447319;-0.2386136;1184057621
-225.005626;343.375;7581;-17300;0.961592464;0.015295744;-0.24575162;1184082054
-224.983518;343.375;7581;-17300;0.959553;0.010197163;-0.247791052;1184104162
-224.947688;343.375;7581;-17300;0.961592464;0.028552056;-0.247791052;1184139992
-224.917678;343.375;7581;-17300;0.96261216;0.028552056;-0.23453474;1184170002
-224.887416;343.375;7581;-17300;0.961592464;0.026512622;-0.23657418;1184200264
-224.865589;343.375;7581;-17300;0.96363184;0.026512622;-0.25186992;1184222091
-224.837074;343.375;7581;-17300;0.9585333;0.029571772;-0.26104736;1184250606
-224.807681;343.375;7581;-17300;0.959553;0.02753234;-0.25288964;1184279999
-224.777485;343.375;7581;-17300;0.96363184;0.025492906;-0.2314756;1184310195
-224.731724;343.375;7581;-17300;0.96261216;0.03263092;-0.242692468;1184355956
-224.707527;343.375;7581;-17300;0.9605727;0.033650636;-0.25288964;1184380153
-224.685210;343.375;7581;-17300;0.959553;0.03263092;-0.2569685;1184402470
-224.657933;343.375;7581;-17300;0.96261216;0.03263092;-0.25288964;1184429747
-224.617675;343.375;7587;-17313;0.9605727;0.026512622;-0.23657418;1184470005
-224.595826;343.375;7587;-17313;0.96363184;0.015295744;-0.232495316;1184491854
-224.567447;343.375;7587;-17313;0.96261216;0.013256311;-0.2314756;1184520233
-224.545830;343.375;7587;-17313;0.96261216;0.02447319;-0.24983048;1184541850
-224.496558;343.375;7587;-17313;0.961592464;0.0377295;-0.24677134;1184591122
-224.473382;343.375;7587;-17319;0.96363184;0.025492906;-0.237593884;1184614298
-224.447603;343.375;7593;-17319;0.9605727;0.011216879;-0.22739672;1184640077
-224.417634;343.375;7587;-17319;0.96261216;0.00815773;-0.23351502;1184670046
-224.390443;343.375;7587;-17313;0.961592464;0.023453474;-0.2508502;1184697237
-224.368682;343.375;7587;-17307;0.9585333;0.036709784;-0.25390936;1184718998
-224.346954;343.375;7587;-17300;0.961592464;0.04588723;-0.24575162;1184740726
-224.317620;343.4375;7587;-17300;0.96363184;0.04078865;-0.23555446;1184770060
-224.267756;343.4375;7587;-17300;0.96363184;0.018354892;-0.23453474;1184819924
-224.245867;343.4375;7587;-17300;0.9585333;0.018354892;-0.25186992;1184841813
-224.217586;343.375;7587;-17300;0.959553;0.02753234;-0.25492908;1184870094
-224.173855;343.375;7587;-17300;0.966691;0.046906948;-0.237593884;1184913825
-224.147162;343.4375;7587;-17307;0.96363184;0.030591488;-0.22943616;1184940518
-224.098024;343.375;7587;-17319;0.96363184;0.0030591488;-0.24575162;1184989656
-224.075854;343.375;7587;-17319;0.9585333;0.023453474;-0.26002764;1185011826
-224.046801;343.375;7587;-17319;0.961592464;0.033650636;-0.242692468;1185040879
-224.017496;343.3125;7587;-17319;0.9646516;0.033650636;-0.22433758;1185070184
-223.969786;343.3125;7587;-17319;0.96363184;0.028552056;-0.24167276;1185117894
-223.947436;343.3125;7587;-17325;0.9605727;0.013256311;-0.2569685;1185140244
-223.917712;343.3125;7581;-17325;0.9605727;0.01631546;-0.26002764;1185169968
-223.892716;343.3125;7587;-17319;0.96363184;0.026512622;-0.23555446;1185194964
-223.867883;343.3125;7587;-17313;0.9656713;0.0377295;-0.2314756;1185219797
-223.845482;343.375;7587;-17307;0.96363184;0.041808368;-0.23453474;1185242198
-223.817761;343.375;7581;-17307;0.96261216;0.03569007;-0.24167276;1185269919
-223.773002;343.375;7581;-17313;0.95649384;0.014276028;-0.2569685;1185314678
-223.725618;343.375;7581;-17313;0.96363184;0.039768936;-0.22841644;1185362062
-223.703988;343.375;7581;-17313;0.96363184;0.041808368;-0.22739672;1185383692
-223.682102;343.375;7587;-17307;0.961592464;0.039768936;-0.23555446;1185405578
-223.657710;343.375;7587;-17313;0.959553;0.022433758;-0.248810768;1185429970
-223.576024;343.375;7587;-17325;0.9646516;0.030591488;-0.22433758;1185511656
-223.547861;343.375;7587;-17319;0.9646516;0.0377295;-0.22433758;1185539819
-223.523611;343.375;7587;-17319;0.9605727;0.031611204;-0.23657418;1185564069
-223.497764;343.375;7581;-17325;0.9605727;0.025492906;-0.26104736;1185589916
-223.472482;343.375;7581;-17325;0.9585333;0.015295744;-0.2579882;1185615198
-223.447696;343.375;7581;-17319;0.96363184;0.020394326;-0.2508502;1185639984
-223.417757;343.375;7581;-17319;0.966691;0.029571772;-0.2314756;1185669923
-223.387742;343.375;7581;-17313;0.966691;0.0387492184;-0.22739672;1185699938
-223.365947;343.375;7581;-17313;0.96363184;0.031611204;-0.25288964;1185721733
-223.337652;343.375;7581;-17313;0.9585333;0.023453474;-0.26002764;1185750028
-223.314866;343.375;7581;-17313;0.9585333;0.021414042;-0.25594878;1185772814
-223.267404;343.375;7581;-17319;0.9656713;0.031611204;-0.22943616;1185820276
-223.246007;343.375;7581;-17313;0.9646516;0.039768936;-0.22841644;1185841673
-223.208042;343.375;7581;-17313;0.961592464;0.029571772;-0.24677134;1185879638
