t_s;ax;ay;az;gx;gy;gz;irq_runs;uptime_us
-269.980847;1.014064;0.021472;-0.005856;-112;49;-70;1;1139106833
-269.969718;1.013088;0.01952;-0.00488;-119;70;-49;1;1139117962
-269.947774;1.014064;0.00488;0.000976;-175;77;-35;1;1139139906
-269.936927;1.0111359;0.000976;0.00488;-168;77;-56;1;1139150753
-269.914117;1.014064;-0.000976;0.013664;-140;70;-77;1;1139173563
-269.903861;1.012112;0.001952;0.013664;-98;63;-77;1;1139183819
-269.888902;1.013088;0.0;0.00976;-70;28;-91;1;1139198778
-269.875759;1.01016;0.002928;-0.002928;-91;-7;-119;1;1139211921
-269.864752;1.014064;0.00976;-0.006832;28;0;-126;1;1139222928
-269.846608;1.013088;0.011712;-0.007808;-70;35;-133;1;1139241072
-269.833285;1.013088;0.010736;-0.002928;-70;70;-105;1;1139254395
-269.822804;1.014064;0.011712;-0.000976;-98;56;-98;1;1139264876
-269.802852;1.0111359;0.008784;-0.000976;-112;42;-105;1;1139284828
-269.789867;1.013088;0.011712;-0.001952;-56;84;-84;1;1139297813
-269.776792;1.013088;0.005856;0.001952;-84;112;-84;1;1139310888
-269.765728;1.013088;0.00488;0.011712;-140;105;-98;1;1139321952
-269.752418;1.01016;-0.000976;0.017568;-98;21;-112;1;1139335262
-269.740318;1.012112;-0.000976;0.008784;-21;-7;-126;1;1139347362
-269.729218;1.012112;-0.000976;0.0;-49;-7;-140;1;1139358462
-269.718058;1.009184;0.005856;-0.003904;-98;21;-161;1;1139369622
-269.705004;1.012112;0.007808;-0.001952;-28;35;-154;1;1139382676
-269.682797;1.013088;0.01952;-0.005856;-21;7;-161;1;1139404883
-269.666063;1.014064;0.01952;-0.00976;-49;21;-140;1;1139421617
-269.654729;1.0150399;0.018544;-0.007808;-42;63;-112;1;1139432951
-269.605508;1.014064;0.01464;0.005856;-105;35;-77;1;1139482172
-269.581938;1.0111359;0.00488;0.001952;-161;49;-77;1;1139505742
-269.570478;1.012112;0.0;0.003904;-84;21;-98;1;1139517202
-269.556339;1.0111359;0.00488;0.000976;-70;28;-119;1;1139531341
-269.545592;1.014064;0.005856;0.000976;-63;28;-133;1;1139542088
-269.532784;1.0111359;0.007808;0.002928;-91;35;-126;1;1139554896
-269.512400;1.0111359;0.016592;-0.000976;-14;28;-119;1;1139575280
-269.483585;1.014064;0.030256;-0.007808;-42;91;-49;1;1139604095
-269.466627;1.0111359;0.012688;0.003904;-203;91;-35;1;1139621053
-269.454564;1.0111359;0.005856;0.008784;-210;70;-28;1;1139633116
-269.421771;1.012112;-0.005856;0.012688;-161;49;-56;1;1139665909
-269.402840;1.0111359;-0.000976;0.015616;-119;35;-98;1;1139684840
-269.391263;1.012112;0.0;0.007808;-63;-7;-112;1;1139696417
-269.380295;1.016992;0.003904;-0.000976;-84;-42;-140;1;1139707385
-269.365690;1.016016;0.022448;-0.013664;-28;21;-119;1;1139721990
-269.352684;1.012112;0.01952;-0.008784;-49;56;-98;1;1139734996
-269.338775;1.012112;0.016592;-0.000976;-112;77;-91;1;1139748905
-269.325869;1.014064;0.007808;0.00976;-77;35;-77;1;1139761811
-269.302860;1.013088;0.005856;0.007808;-84;35;-77;1;1139784820
-269.291796;1.014064;0.003904;0.007808;-154;35;-91;1;1139795884
-269.272829;1.012112;0.002928;0.002928;-7;49;-84;1;1139814851
-269.257371;1.0150399;0.001952;0.00488;-35;14;-112;1;1139830309
-269.244007;1.012112;0.012688;0.001952;-49;7;-133;1;1139843673
-269.221092;1.0111359;0.00976;0.000976;-63;0;-119;1;1139866588
-269.202363;1.013088;0.007808;0.001952;-63;28;-126;1;1139885317
-269.186383;1.013088;0.015616;-0.001952;-56;42;-119;1;1139901297
-269.162811;1.0150399;0.017568;0.0;-112;28;-105;1;1139924869
-269.114413;1.0111359;0.00488;0.017568;-140;49;-84;1;1139973267
-269.099521;1.013088;0.002928;0.015616;-112;14;-91;1;1139988159
-269.088439;1.009184;0.000976;0.006832;-105;-28;-98;1;1139999241
-269.077790;1.014064;0.001952;-0.00488;-84;-28;-105;1;1140009890
-269.066729;1.014064;0.008784;-0.005856;-63;0;-112;1;1140020951
-269.051334;1.013088;0.01464;-0.001952;-63;42;-112;1;1140036346
-269.040894;1.013088;0.01952;-0.006832;-49;42;-105;1;1140046786
-269.022802;1.014064;0.020496;-0.005856;-70;49;-77;1;1140064878
-269.006197;1.013088;0.018544;-0.00488;-105;77;-70;1;1140081483
-268.992207;1.009184;0.008784;0.010736;-147;105;-42;1;1140095473
-268.979875;1.0111359;0.006832;0.015616;-119;91;-35;1;1140107805
-268.968696;1.0111359;0.002928;0.017568;-126;49;-49;1;1140118984
-268.956092;1.0111359;-0.002928;0.012688;-147;21;-70;1;1140131588
-268.945830;1.014064;0.002928;0.006832;-133;7;-91;1;1140141850
-268.934577;1.01016;0.007808;0.002928;-126;7;-91;1;1140153103
-268.912873;1.009184;0.00488;-0.000976;-119;14;-98;1;1140174807
-268.901813;1.016016;0.00488;-0.00488;-91;21;-98;1;1140185867
-268.890653;1.0150399;0.011712;-0.008784;-84;42;-105;1;1140197027
-268.878602;1.0111359;0.011712;-0.00488;-98;56;-112;1;1140209078
-268.867827;1.013088;0.013664;-0.001952;-105;70;-105;1;1140219853
-268.853417;1.016992;0.018544;0.0;-84;77;-84;1;1140234263
-268.812727;1.009184;0.003904;0.021472;-133;35;-77;1;1140274953
-268.799984;1.014064;0.002928;0.00976;-84;-21;-77;1;1140287696
-268.788655;1.0111359;0.00488;0.001952;-56;-14;-84;1;1140299025
-268.776234;1.0111359;0.007808;-0.007808;-112;7;-98;1;1140311446
-268.765795;1.014064;0.002928;-0.005856;-105;28;-105;1;1140321885
-268.752406;1.0150399;0.005856;-0.001952;-28;28;-105;1;1140335274
-268.712782;1.0111359;0.00976;0.000976;-7;42;-126;1;1140374898
-268.646720;1.01016;0.00976;0.000976;-63;7;-84;1;1140440960
-268.622601;1.014064;0.002928;0.0;-105;42;-70;1;1140465079
-268.611310;1.012112;0.0;0.003904;-77;28;-70;1;1140476370
-268.586890;1.0111359;0.00488;-0.000976;-84;0;-147;1;1140500790
-268.575425;1.01016;0.012688;-0.001952;14;7;-140;1;1140512255
-268.564617;1.013088;0.013664;-0.001952;-21;21;-133;1;1140523063
-268.549926;1.01016;0.015616;0.003904;-105;21;-126;1;1140537754
-268.527795;1.0111359;0.01952;0.003904;28;28;-91;1;1140559885
-268.511246;1.012112;0.01952;-0.002928;-84;7;-105;1;1140576434
-268.497423;1.008208;0.01952;-0.007808;-84;7;-70;1;1140590257
-268.482369;1.012112;0.011712;-0.011712;-147;49;-42;1;1140605311
-268.470131;1.009184;0.000976;-0.00488;-182;77;-49;1;1140617549
-268.456728;1.0111359;-0.007808;0.00488;-133;84;-63;1;1140630952
-268.443696;1.01016;-0.002928;0.008784;-112;49;-126;1;1140643984
-268.411334;1.016016;0.00976;0.002928;-49;42;-126;1;1140676346
-268.377563;1.0111359;0.015616;0.006832;-28;35;-98;1;1140710117
-268.362345;1.012112;0.015616;-0.000976;-140;-14;-91;1;1140725335
-268.351772;1.012112;0.010736;-0.002928;-112;14;-91;1;1140735908
-268.337224;1.009184;0.005856;-0.00488;-63;42;-70;1;1140750456
-268.312823;1.0150399;0.003904;0.003904;-112;42;-105;1;1140774857
-268.275998;1.014064;0.010736;-0.001952;-56;42;-126;1;1140811682
-268.262360;1.01016;0.010736;0.00976;-84;70;-126;1;1140825320
-268.251742;1.0111359;0.00976;0.013664;-77;35;-119;1;1140835938
-268.203355;1.012112;0.01464;-0.003904;-84;-14;-140;1;1140884325
-268.180132;1.014064;0.007808;-0.007808;-105;7;-105;1;1140907548
-268.168752;1.014064;0.007808;-0.007808;-112;28;-105;1;1140918928
-268.153677;1.0111359;0.008784;-0.010736;-42;49;-105;1;1140934003
-268.141625;1.018944;0.013664;-0.003904;-70;63;-105;1;1140946055
-268.129930;1.012112;0.017568;0.001952;-105;70;-105;1;1140957750
-268.104572;1.013088;0.007808;0.011712;-28;42;-63;1;1140983108
-268.080382;1.014064;0.011712;0.006832;-91;7;-105;1;1141007298
-268.069047;1.014064;0.00976;0.001952;7;0;-84;1;1141018633
-268.055428;1.012112;0.007808;-0.010736;-35;-7;-77;1;1141032252
-268.044309;1.012112;0.010736;-0.008784;-105;7;-91;1;1141043371
-268.033168;1.012112;0.00976;-0.00976;-98;35;-91;1;1141054512
-268.011375;1.0150399;0.005856;-0.011712;-84;63;-98;1;1141076305
-267.991130;1.013088;0.011712;-0.005856;-98;98;-105;1;1141096550
-267.979103;1.01016;0.012688;0.007808;-119;119;-91;1;1141108577
-267.964338;1.013088;0.011712;0.010736;-84;105;-91;1;1141123342
-267.951475;1.009184;0.01464;0.011712;-126;77;-91;1;1141136205
-267.918854;1.0111359;0.012688;0.002928;-147;63;-70;1;1141168826
-267.901362;1.0111359;-0.003904;0.00488;-140;49;-70;1;1141186318
-267.889738;1.014064;0.001952;0.007808;-77;35;-77;1;1141197942
-267.875735;1.012112;0.002928;-0.006832;-77;21;-112;1;1141211945
-267.862715;1.016016;0.002928;-0.005856;-42;56;-105;1;1141224965
-267.844262;1.0111359;0.00976;0.000976;-140;77;-147;1;1141243418
-267.832468;1.013088;0.015616;0.002928;-98;77;-140;1;1141255212
-267.820553;1.0150399;0.017568;0.008784;-105;63;-126;1;1141267127
-267.800819;1.006256;0.018544;0.013664;-154;49;-98;1;1141286861
-267.746545;1.013088;0.008784;-0.006832;-14;-21;-70;1;1141341135
-267.717359;1.009184;0.0;-0.000976;-119;35;-105;1;1141370321
-267.705963;1.0111359;-0.002928;-0.001952;-14;28;-105;1;1141381717
-267.686297;1.013088;0.00488;0.008784;7;56;-140;1;1141401383
-267.674405;1.012112;0.016592;0.010736;-14;0;-147;1;1141413275
-267.662728;1.013088;0.013664;0.006832;-14;7;-126;1;1141424952
-267.651192;1.0111359;0.020496;0.005856;-28;-35;-133;1;1141436488
-267.636456;1.007232;0.021472;0.0;-70;-28;-119;1;1141451224
-267.622860;1.016016;0.025376;-0.005856;-133;-7;-63;1;1141464820
-267.611255;1.013088;0.015616;-0.006832;-182;-7;-49;1;1141476425
-267.600080;1.014064;0.012688;-0.008784;-91;21;-35;1;1141487600
-267.585728;1.016016;0.005856;-0.007808;-126;7;-28;1;1141501952
-267.574735;1.0150399;-0.002928;-0.012688;-161;7;-49;1;1141512945
-267.563338;1.013088;-0.001952;-0.007808;-77;56;-63;1;1141524342
-267.536010;1.01016;0.002928;0.0;14;84;-105;1;1141551670
-267.512841;1.012112;0.01464;0.002928;-98;63;-133;1;1141574839
-267.496926;1.012112;0.017568;0.00976;-70;70;-91;1;1141590754
-267.483698;1.013088;0.015616;0.013664;-168;56;-98;1;1141603982
-267.472625;1.01016;0.012688;0.008784;-63;42;-77;1;1141615055
-267.456342;1.016992;0.016592;-0.003904;-154;0;-70;1;1141631338
-267.412789;1.0111359;-0.003904;-0.007808;-105;77;-49;1;1141674891
-267.393781;1.016016;-0.00488;-0.001952;-98;91;-112;1;1141693899
-267.376243;1.016016;0.001952;0.002928;-91;112;-126;1;1141711437
-267.363864;1.0111359;0.00488;0.011712;-161;105;-161;1;1141723816
-267.341603;1.01016;0.018544;0.016592;14;91;-133;1;1141746077
-267.320943;1.0111359;0.020496;0.015616;-98;28;-133;1;1141766737
-267.302691;1.0111359;0.012688;0.001952;-126;-7;-84;1;1141784989
-267.237791;1.0111359;0.000976;-0.000976;-84;63;-133;1;1141849889
-267.212798;1.016016;0.00976;0.00488;-35;77;-147;1;1141874882
-267.201018;1.013088;0.01952;0.00976;-21;70;-154;1;1141886662
-267.189748;1.0111359;0.023424;0.012688;-14;56;-133;1;1141897932
-267.178645;1.0150399;0.021472;0.017568;-35;28;-105;1;1141909035
-267.167115;1.013088;0.012688;0.013664;-112;-14;-91;1;1141920565
-267.151503;1.01016;0.007808;0.007808;-91;-35;-84;1;1141936177
-267.140906;1.012112;0.00488;-0.002928;-49;-49;-77;1;1141946774
-267.129238;1.0150399;0.006832;-0.007808;-35;-35;-84;1;1141958442
-267.118676;1.0150399;0.003904;-0.012688;-63;-21;-91;1;1141969004
-267.102715;1.014064;0.006832;-0.018544;-28;35;-105;1;1141984965
-267.080338;1.014064;0.01464;-0.00488;-21;77;-119;1;1142007342
-267.069364;1.0111359;0.016592;0.000976;-84;84;-119;1;1142018316
-267.055015;1.014064;0.011712;0.008784;-112;63;-84;1;1142032665
-267.043712;1.014064;0.008784;0.008784;-133;63;-84;1;1142043968
-267.031750;1.016016;0.011712;0.010736;-126;63;-84;1;1142055930
-267.012866;1.009184;0.011712;0.006832;-84;35;-84;1;1142074814
-267.001474;1.012112;0.010736;0.005856;-140;14;-77;1;1142086206
-266.979289;1.013088;0.002928;-0.005856;-112;7;-77;1;1142108391
-266.954056;1.013088;0.008784;-0.007808;-84;49;-112;1;1142133624
-266.942107;1.012112;0.013664;0.0;-84;70;-105;1;1142145573
-266.921252;1.014064;0.006832;0.006832;-133;84;-84;1;1142166428
-266.909766;1.013088;0.005856;0.015616;-112;84;-84;1;1142177914
-266.890176;1.009184;0.002928;0.015616;-63;21;-119;1;1142197504
-266.877144;1.01016;0.005856;0.012688;-49;-14;-126;1;1142210536
-266.842571;1.014064;0.015616;-0.010736;-70;21;-98;1;1142245109
-266.829316;1.0150399;0.013664;-0.011712;-35;28;-91;1;1142258364
-266.810460;1.0111359;0.007808;-0.00488;-154;42;-98;1;1142277220
-266.799365;1.0111359;0.008784;0.002928;-161;49;-105;1;1142288315
-266.787970;1.012112;0.006832;0.00488;-112;63;-84;1;1142299710
-266.772916;1.013088;0.002928;0.011712;-63;70;-77;1;1142314764
-266.756920;1.013088;0.00488;0.011712;-77;21;-112;1;1142330760
-266.745910;1.012112;0.008784;0.006832;-70;0;-119;1;1142341770
-266.733674;1.0111359;0.006832;0.0;-14;-7;-112;1;1142354006
-266.712848;1.01016;0.006832;-0.002928;-91;7;-126;1;1142374832
-266.692775;1.0150399;0.015616;-0.00488;14;35;-91;1;1142394905
-266.679362;1.014064;0.01464;-0.002928;-105;28;-98;1;1142408318
-266.668663;1.0150399;0.015616;-0.002928;-154;21;-91;1;1142419017
-266.655224;1.0111359;0.010736;-0.001952;-161;42;-91;1;1142432456
-266.642117;1.012112;0.01464;-0.007808;-91;42;-84;1;1142445563
-266.628921;1.016016;0.013664;-0.003904;-119;91;-77;1;1142458759
-266.612867;1.013088;0.00976;0.000976;-112;105;-56;1;1142474813
-266.592757;1.0150399;0.001952;0.007808;-154;56;-70;1;1142494923
-266.581232;1.012112;0.002928;0.003904;-182;49;-98;1;1142506448
-266.570672;1.00528;0.003904;0.005856;-91;42;-91;1;1142517008
-266.555721;1.0150399;0.008784;0.007808;-105;70;-91;1;1142531959
-266.519587;1.013088;0.010736;-0.005856;-84;21;-84;1;1142568093
-266.498587;1.008208;0.01464;-0.008784;-140;49;-98;1;1142589093
-266.487187;1.014064;0.012688;0.001952;-119;91;-63;1;1142600493
-266.472526;1.0111359;0.006832;0.005856;-168;84;-56;1;1142615154
-266.461722;1.0111359;0.007808;0.008784;-175;77;-70;1;1142625958
-266.447320;1.012112;0.005856;0.006832;-147;56;-70;1;1142640360
-266.436561;1.01016;0.000976;0.00976;-91;56;-84;1;1142651119
-266.418562;1.009184;0.003904;0.011712;-168;49;-98;1;1142669118
-266.402785;1.01016;0.008784;0.011712;-133;21;-98;1;1142684895
-266.369415;1.0150399;0.008784;-0.001952;-133;-7;-112;1;1142718265
-266.357249;1.0111359;0.007808;-0.006832;-77;-21;-105;1;1142730431
-266.343241;1.013088;-0.000976;-0.002928;-63;42;-112;1;1142744439
-266.322830;1.0111359;0.005856;0.007808;-21;42;-119;1;1142764850
-266.311677;1.013088;0.00976;0.006832;56;42;-105;1;1142776003
-266.295298;1.0111359;0.011712;0.003904;-56;0;-126;1;1142792382
-266.283261;1.013088;0.01464;0.007808;14;14;-105;1;1142804419
-266.271375;1.014064;0.011712;0.007808;-42;7;-91;1;1142816305
-266.245773;1.008208;0.010736;0.003904;-35;-14;-98;1;1142841907
-266.222737;1.013088;0.003904;-0.010736;-49;-28;-105;1;1142864943
-266.210975;1.0111359;0.002928;-0.01464;-84;-14;-112;1;1142876705
-266.199687;1.013088;0.008784;-0.015616;-35;35;-112;1;1142887993
-266.177925;1.012112;0.010736;-0.005856;-63;63;-126;1;1142909755
-266.164282;1.0179679;0.011712;-0.005856;-28;70;-119;1;1142923398
-266.153463;1.012112;0.016592;0.002928;-56;77;-112;1;1142934217
-266.139532;1.0111359;0.012688;0.012688;-161;84;-105;1;1142948148
-266.128845;1.012112;0.011712;0.023424;-112;91;-84;1;1142958835
-266.116196;1.012112;0.00976;0.021472;-70;42;-84;1;1142971484
-266.098833;1.013088;0.005856;0.007808;-112;-14;-98;1;1142988847
-266.085882;1.014064;0.007808;0.0;-91;-28;-91;1;1143001798
-266.073446;1.013088;0.007808;-0.006832;-91;-35;-91;1;1143014234
-266.062854;1.0111359;0.003904;-0.013664;-91;0;-91;1;1143024826
-266.050141;1.012112;0.007808;-0.017568;-28;35;-112;1;1143037539
-266.030931;1.013088;0.013664;-0.01464;-98;112;-119;1;1143056749
-266.012718;1.013088;0.018544;-0.000976;-119;140;-105;1;1143074962
-265.997700;1.014064;0.016592;0.015616;-140;112;-98;1;1143089980
-265.986546;1.009184;0.01464;0.015616;-168;91;-84;1;1143101134
-265.952471;1.0111359;0.010736;0.012688;-119;35;-49;1;1143135209
-265.932210;1.012112;0.002928;0.008784;-112;0;-84;1;1143155470
-265.920398;1.0150399;0.000976;0.005856;-49;-21;-70;1;1143167282
-265.902838;1.013088;0.002928;-0.008784;-154;-7;-119;1;1143184842
-265.890212;1.012112;0.003904;-0.010736;-70;14;-105;1;1143197468
-265.871266;1.014064;0.00976;-0.011712;-63;42;-112;1;1143216414
-265.831700;1.013088;0.012688;0.011712;-105;77;-84;1;1143255980
-265.817402;1.012112;0.005856;0.016592;-105;28;-70;1;1143270278
-265.805423;1.012112;0.005856;0.012688;-84;0;-91;1;1143282257
-265.794276;1.014064;0.002928;0.010736;-35;-14;-98;1;1143293404
-265.782107;1.014064;0.006832;0.001952;-56;-28;-105;1;1143305573
-265.771187;1.012112;0.00488;-0.003904;-105;-35;-105;1;1143316493
-265.755972;1.01016;0.000976;-0.017568;-84;0;-105;1;1143331708
-265.721860;1.012112;0.006832;-0.00488;-56;91;-147;1;1143365820
-265.704741;1.013088;0.011712;0.006832;-105;70;-126;1;1143382939
-265.691038;1.013088;0.018544;0.012688;-147;70;-126;1;1143396642
-265.679620;1.009184;0.013664;0.010736;-119;56;-112;1;1143408060
-265.668775;1.012112;0.015616;0.012688;-21;49;-84;1;1143418905
-265.657768;1.0179679;0.016592;0.008784;-91;28;-91;1;1143429912
-265.642465;1.01016;0.008784;0.00488;-70;0;-77;1;1143445215
-265.630764;1.014064;0.00488;-0.005856;-63;-7;-84;1;1143456916
-265.612847;1.013088;0.005856;-0.00976;-119;35;-105;1;1143474833
-265.600503;1.0111359;0.003904;-0.00488;-63;70;-112;1;1143487177
-265.578519;1.013088;0.011712;-0.00488;-56;49;-126;1;1143509161
-265.567691;1.016016;0.017568;-0.005856;-119;49;-133;1;1143519989
-265.555001;1.013088;0.01952;-0.001952;14;91;-98;1;1143532679
-265.532809;1.013088;0.017568;0.017568;-175;91;-98;1;1143554871
-265.512144;1.012112;0.010736;0.01952;-133;14;-49;1;1143575536
-265.473878;1.01016;0.005856;-0.007808;-140;-21;-70;1;1143613802
-265.457190;1.012112;0.007808;-0.010736;-49;21;-70;1;1143630490
-265.442093;1.016016;0.006832;-0.013664;-154;42;-91;1;1143645587
-265.431046;1.013088;0.00488;-0.008784;-105;77;-91;1;1143656634
-265.420075;1.0150399;0.008784;-0.006832;-56;105;-84;1;1143667605
-265.407025;1.0111359;0.007808;0.003904;-112;105;-105;1;1143680655
-265.378904;1.014064;0.005856;0.00976;-77;77;-91;1;1143708776
-265.365201;1.01016;0.001952;0.01464;-119;70;-98;1;1143722479
-265.345993;1.014064;0.005856;0.011712;-49;21;-112;1;1143741687
-265.322867;1.012112;0.008784;-0.000976;-42;0;-112;1;1143764813
-265.311035;1.013088;0.005856;-0.011712;-84;35;-112;1;1143776645
-265.292796;1.01016;0.010736;-0.011712;7;49;-112;1;1143794884
-265.279404;1.013088;0.010736;-0.002928;-77;84;-112;1;1143808276
-265.250604;1.012112;0.00976;0.011712;-154;70;-105;1;1143837076
-265.238111;1.012112;0.015616;0.00488;-63;70;-91;1;1143849569
-265.222776;1.0150399;0.016592;0.00488;-133;63;-98;1;1143864904
-265.211361;1.01016;0.017568;0.000976;-231;63;-105;1;1143876319
-265.198300;1.013088;0.006832;0.006832;-224;35;-77;1;1143889380
-265.185597;1.013088;-0.002928;0.00976;-189;14;-84;1;1143902083
-265.174854;1.013088;-0.00488;0.003904;-140;14;-91;1;1143912826
-265.161872;1.0111359;-0.005856;-0.003904;-133;14;-119;1;1143925808
-265.150764;1.012112;0.000976;-0.002928;-98;35;-133;1;1143936916
-265.133276;1.0150399;0.011712;-0.000976;-98;70;-147;1;1143954404
-265.122970;1.013088;0.015616;0.003904;-77;63;-140;1;1143964710
-265.111410;1.012112;0.017568;0.003904;-21;49;-126;1;1143976270
-265.100720;1.0111359;0.021472;0.002928;-21;42;-119;1;1143986960
-265.085402;1.012112;0.013664;0.00976;7;63;-77;1;1144002278
-265.074237;1.014064;0.012688;0.013664;-7;63;-70;1;1144013443
-265.019586;1.0111359;0.005856;-0.006832;-21;-63;-77;1;1144068094
-265.000544;1.01016;-0.001952;-0.01464;-77;-14;-84;1;1144087136
-264.977297;1.013088;0.007808;-0.00488;-70;35;-133;1;1144110383
-264.953583;1.016992;0.020496;-0.005856;-28;56;-91;1;1144134097
-264.942673;1.0111359;0.015616;-0.001952;-140;42;-91;1;1144145007
-264.930118;1.012112;0.013664;0.002928;-147;70;-91;1;1144157562
-264.917367;1.0111359;0.012688;0.007808;-28;84;-63;1;1144170313
-264.903132;1.012112;0.007808;0.013664;-119;21;-84;1;1144184548
-264.879710;1.016016;0.002928;0.002928;-126;-14;-63;1;1144207970
-264.868434;1.0111359;-0.003904;0.000976;-147;0;-77;1;1144219246
-264.857444;1.009184;-0.005856;-0.002928;-56;7;-84;1;1144230236
-264.846986;1.016016;-0.005856;-0.002928;-56;-7;-112;1;1144240694
-264.834050;1.013088;0.001952;-0.016592;7;14;-161;1;1144253630
-264.811110;1.0150399;0.017568;-0.016592;-56;77;-161;1;1144276570
-264.791307;1.012112;0.022448;0.0;-70;126;-119;1;1144296373
-264.779136;1.013088;0.021472;0.011712;-91;133;-105;1;1144308544
-264.759013;1.01016;0.016592;0.016592;-168;63;-77;1;1144328667
-264.748794;1.012112;0.00976;0.018544;-154;56;-70;1;1144338886
-264.717669;1.013088;0.003904;0.008784;-168;7;-70;1;1144370011
-264.698069;1.013088;-0.00488;;1.7639999;0.147;0.147;1;1144389611
-264.687850;1.014064;-0.00488;-0.015616;-147;14;-119;1;1144399830
-264.674846;1.012112;-0.000976;-0.013664;-70;49;-140;1;1144412834
-264.662910;1.0150399;0.003904;-0.013664;-63;63;-147;1;1144424770
-264.646855;1.012112;0.018544;0.005856;-63;105;-154;1;1144440825
-264.596337;1.012112;0.021472;0.023424;-98;21;-84;1;1144491343
-264.582324;1.0111359;0.016592;0.021472;-91;-7;-56;1;1144505356
-264.570603;1.014064;0.001952;0.0;-98;-70;-35;1;1144517077
-264.546658;1.014064;-0.00488;-0.01464;-49;-28;-77;1;1144541022
-264.533152;1.012112;-0.006832;-0.013664;-21;-14;-105;1;1144554528
-264.522841;1.013088;-0.002928;-0.012688;14;35;-119;1;1144564839
-264.511038;1.013088;0.002928;-0.006832;35;49;-119;1;1144576642
-264.490879;1.012112;0.010736;0.003904;-21;63;-126;1;1144596801
-264.478892;1.01016;0.020496;0.008784;28;56;-119;1;1144608788
-264.450542;1.0150399;0.028304;0.013664;-147;7;-91;1;1144637138
-264.411139;1.016016;0.002928;-0.00976;-203;7;-49;1;1144676541
-264.399457;1.013088;0.001952;-0.01464;-84;14;-49;1;1144688223
-264.379673;1.016992;-0.010736;-0.00488;-126;49;-77;1;1144708007
-264.368458;1.0111359;-0.00488;-0.003904;-140;77;-119;1;1144719222
-264.355970;1.0179679;0.010736;-0.000976;-49;91;-133;1;1144731710
-264.340746;1.013088;0.01464;0.00488;-56;91;-133;1;1144746934
-264.318897;1.0111359;0.016592;0.006832;-56;42;-112;1;1144768783
-264.302650;1.016016;0.01464;0.005856;-119;21;-84;1;1144785030
-264.291698;1.01016;0.01464;0.003904;-154;21;-105;1;1144795982
-264.272774;1.018944;0.008784;0.0;-98;28;-28;1;1144814906
-264.249783;1.009184;-0.001952;-0.003904;-161;42;-70;1;1144837897
-264.232853;1.013088;-0.000976;-0.001952;-105;49;-105;1;1144854827
-264.217480;1.0111359;0.001952;-0.001952;-56;70;-119;1;1144870200
-264.175217;1.014064;0.01464;0.005856;-91;70;-126;1;1144912463
-264.138017;1.014064;0.007808;0.013664;-182;-7;-105;1;1144949663
-264.113778;1.013088;0.002928;0.006832;-168;-7;-91;1;1144973902
-264.102952;1.01016;0.007808;0.001952;-56;-14;-112;1;1144984728
-264.084666;1.016992;0.007808;-0.00488;-56;-35;-84;1;1145003014
-264.073448;1.012112;0.008784;-0.01464;-42;21;-98;1;1145014232
-264.060710;1.012112;0.001952;-0.013664;-84;49;-91;1;1145026970
-264.048911;1.0150399;0.000976;-0.001952;-56;84;-105;1;1145038769
-264.034368;1.01016;0.002928;0.005856;-14;91;-126;1;1145053312
-264.011221;1.009184;0.017568;0.007808;-56;28;-133;1;1145076459
-263.991294;1.012112;0.01952;0.001952;-63;-7;-105;1;1145096386
-263.980185;1.013088;0.011712;0.00488;-140;-7;-91;1;1145107495
-263.960830;1.014064;0.008784;-0.001952;-28;-21;-77;1;1145126850
-263.948576;1.012112;0.006832;-0.007808;-91;0;-77;1;1145139104
-263.927462;1.014064;0.007808;-0.011712;-98;14;-98;1;1145160218
-263.913466;1.012112;0.006832;-0.012688;-49;49;-77;1;1145174214
-263.902643;1.0150399;0.007808;-0.012688;-98;70;-91;1;1145185037
-263.878238;1.013088;0.005856;0.006832;-28;98;-105;1;1145209442
-263.867812;1.013088;0.010736;0.01464;-49;91;-105;1;1145219868
-263.854284;1.0111359;0.011712;0.01464;-119;56;-126;1;1145233396
-263.843096;1.012112;0.012688;0.012688;-175;42;-112;1;1145244584
-263.832123;1.013088;0.00976;0.011712;-28;35;-77;1;1145255557
-263.804868;1.0150399;0.006832;0.0;-56;7;-112;1;1145282812
-263.781467;1.012112;0.011712;-0.007808;-126;14;-112;1;1145306213
-263.770336;1.013088;0.010736;-0.00976;-105;35;-105;1;1145317344
-263.719789;1.008208;0.000976;0.001952;-98;98;-126;1;1145367891
-263.697855;1.014064;0.01464;0.01952;-84;49;-140;1;1145389825
-263.686894;1.0111359;0.01464;0.015616;-91;42;-126;1;1145400786
-263.667634;1.013088;0.00976;0.011712;-21;-7;-91;1;1145420046
-263.656745;1.0150399;0.005856;0.006832;-98;-21;-119;1;1145430935
-263.644410;1.014064;0.013664;-0.003904;-56;-21;-133;1;1145443270
-263.622870;1.0150399;0.017568;-0.006832;-42;0;-112;1;1145464810
-263.610522;1.0150399;0.013664;-0.005856;-49;28;-91;1;1145477158
-263.597359;1.0111359;0.005856;-0.001952;-126;56;-84;1;1145490321
-263.584133;1.0111359;0.001952;0.000976;-98;42;-84;1;1145503547
-263.562761;1.0150399;0.00488;0.003904;-63;35;-133;1;1145524919
-263.549733;1.013088;0.007808;0.003904;-98;35;-140;1;1145537947
-263.535757;1.01016;0.012688;0.003904;-77;49;-112;1;1145551923
-263.523567;1.012112;0.012688;0.00488;-84;35;-105;1;1145564113
-263.507705;1.012112;0.006832;0.006832;-42;21;-98;1;1145579975
-263.482734;1.009184;0.01952;-0.00488;-49;7;-140;1;1145604946
-263.470904;1.013088;0.015616;-0.000976;-84;35;-119;1;1145616776
-263.456958;1.0111359;0.008784;-0.003904;-49;56;-98;1;1145630722
-263.440014;1.013088;0.010736;-0.00976;-35;42;-98;1;1145647666
-263.412822;1.0111359;0.011712;-0.002928;-70;77;-112;1;1145674858
-263.400400;1.0150399;0.008784;0.002928;-112;91;-112;1;1145687280
-263.389788;1.0111359;0.007808;0.008784;-112;91;-112;1;1145697892
-263.376724;1.012112;0.006832;0.005856;-56;77;-84;1;1145710956
-263.365815;1.013088;0.00488;0.005856;-56;63;-70;1;1145721865
-263.354497;1.0150399;0.00488;0.005856;-105;56;-84;1;1145733183
-263.342485;1.012112;0.005856;0.003904;-98;35;-133;1;1145745195
-263.331704;1.012112;0.013664;0.001952;-35;49;-133;1;1145755976
-263.311337;1.012112;0.023424;0.00488;-126;56;-112;1;1145776343
-263.267556;1.013088;0.000976;-0.000976;-161;14;-84;1;1145820124
-263.253806;1.009184;0.007808;-0.00976;-77;42;-91;1;1145833874
-263.230230;1.01016;0.00488;0.01464;-140;77;-98;1;1145857450
-263.219647;1.0111359;0.005856;0.016592;-91;42;-91;1;1145868033
-263.207514;1.0150399;-0.001952;0.020496;-42;7;-98;1;1145880166
-263.181903;1.012112;0.017568;0.0;-91;-7;-147;1;1145905777
-263.168178;1.01016;0.027328;-0.006832;-56;42;-91;1;1145919502
-263.157796;1.009184;0.020496;-0.003904;-70;35;-63;1;1145929884
-263.143097;1.014064;0.013664;0.003904;-105;21;-63;1;1145944583
-263.131791;1.016016;0.008784;0.000976;-98;14;-63;1;1145955889
-263.120314;1.012112;0.000976;-0.000976;-140;21;-70;1;1145967366
-263.109230;1.0150399;-0.001952;-0.00488;-175;42;-84;1;1145978450
-263.098890;1.01016;-0.002928;-0.000976;-105;70;-91;1;1145988790
-263.074367;1.012112;0.008784;0.00976;7;77;-119;1;1146013313
-263.058023;1.013088;0.010736;0.0244;-84;0;-126;1;1146029657
-263.046748;1.013088;0.002928;0.022448;-84;-49;-112;1;1146040932
-263.035784;1.0111359;0.007808;0.017568;-77;-84;-119;1;1146051896
-263.013710;1.014064;0.028304;-0.008784;28;-63;-105;1;1146073970
-262.996745;1.016992;0.036112;-0.00976;-56;0;-42;1;1146090935
-262.984187;1.013088;0.018544;-0.00976;-203;-21;-14;1;1146103493
-262.973620;1.013088;0.005856;-0.013664;-287;-35;-21;1;1146114060
-262.956397;1.01016;-0.006832;-0.020496;-182;35;-35;1;1146131283
-262.937699;1.01016;-0.008784;0.002928;-147;175;-77;1;1146149981
-262.911324;1.009184;-0.001952;0.02928;-161;70;-133;1;1146176356
-262.892197;1.0111359;0.007808;0.006832;42;-49;-133;1;1146195483
-262.881798;1.012112;0.015616;0.002928;49;-14;-147;1;1146205882
-262.870398;1.013088;0.01952;0.0;-42;21;-147;1;1146217282
-262.832587;1.012112;0.017568;-0.016592;-168;0;-91;1;1146255093
-262.813525;1.013088;0.013664;-0.01464;-105;98;-63;1;1146274155
-262.792562;1.013088;0.0;0.000976;-154;105;-63;1;1146295118
-262.781718;1.009184;-0.001952;0.006832;-105;105;-77;1;1146305962
-262.770628;1.013088;-0.006832;0.00976;-70;84;-91;1;1146317052
-262.753865;1.009184;-0.002928;0.00976;-63;63;-147;1;1146333815
-262.742650;1.012112;0.008784;0.00976;-56;56;-154;1;1146345030
-262.731544;1.012112;0.010736;0.002928;-42;28;-161;1;1146356136
-262.708281;1.012112;0.017568;-0.000976;-14;14;-126;1;1146379399
-262.692809;1.0111359;0.020496;-0.00488;-70;49;-112;1;1146394871
-262.680807;1.008208;0.022448;-0.00488;-98;49;-84;1;1146406873
-262.669685;1.016016;0.017568;-0.005856;-161;56;-70;1;1146417995
-262.647708;1.009184;0.00488;-0.002928;-154;84;-56;1;1146439972
-262.636885;1.014064;-0.002928;0.006832;-154;84;-70;1;1146450795
-262.623878;1.01016;0.0;0.007808;-56;70;-105;1;1146463802
-262.612777;1.013088;-0.002928;0.012688;-77;42;-119;1;1146474903
-262.601196;1.01016;0.002928;0.00976;-56;42;-140;1;1146486484
-262.587696;1.009184;0.007808;0.006832;-56;35;-140;1;1146499984
-262.572271;1.014064;0.015616;0.00976;-42;14;-140;1;1146515409
-262.561610;1.0111359;0.01952;0.00488;14;0;-133;1;1146526070
-262.547944;1.014064;0.021472;0.001952;-77;-21;-119;1;1146539736
-262.531145;1.0111359;0.018544;-0.006832;-42;7;-84;1;1146556535
-262.518987;1.014064;0.021472;-0.006832;-28;21;-63;1;1146568693
-262.502240;1.012112;0.013664;-0.001952;-154;56;-70;1;1146585440
-262.491131;1.0111359;0.005856;0.000976;-98;49;-56;1;1146596549
-262.479119;1.0111359;0.003904;0.000976;-161;35;-63;1;1146608561
-262.467935;1.012112;-0.001952;0.005856;-91;35;-77;1;1146619745
-262.451796;1.012112;-0.000976;0.005856;-63;49;-84;1;1146635884
-262.439760;1.007232;0.003904;0.011712;-28;28;-119;1;1146647920
-262.406627;1.0111359;0.012688;0.000976;-56;-35;-119;1;1146681053
-262.380195;1.0150399;0.021472;-0.00976;-98;7;-77;1;1146707485
-262.368521;1.014064;0.016592;-0.010736;-98;35;-49;1;1146719159
-262.353712;1.014064;0.00976;-0.008784;-126;42;-42;1;1146733968
-262.342354;1.013088;0.00488;-0.008784;-133;56;-49;1;1146745326
-262.331670;1.0111359;0.000976;-0.005856;-119;70;-56;1;1146756010
-262.310847;1.0111359;0.003904;0.001952;-112;91;-84;1;1146776833
-262.299477;1.012112;0.001952;0.00488;-98;84;-84;1;1146788203
-262.287163;1.0150399;-0.000976;0.01464;-140;70;-112;1;1146800517
-262.275909;1.012112;0.002928;0.011712;-14;42;-112;1;1146811771
-262.250069;1.012112;0.011712;0.010736;-63;7;-133;1;1146837611
-262.215684;1.01016;0.01464;-0.00488;-98;-7;-98;1;1146871996
-262.201896;1.013088;0.005856;-0.007808;-133;-14;-98;1;1146885784
-262.176934;1.013088;0.013664;-0.015616;-77;56;-91;1;1146910746
-262.165351;1.0179679;0.010736;-0.017568;-98;84;-91;1;1146922329
-262.151979;1.013088;0.007808;-0.006832;-161;112;-91;1;1146935701
-262.140839;1.0111359;0.002928;0.001952;-119;112;-91;1;1146946841
-262.127949;1.008208;-0.002928;0.003904;-42;119;-91;1;1146959731
-262.112229;1.0150399;0.001952;0.01952;-140;112;-126;1;1146975451
-262.101944;1.016992;0.010736;0.027328;-49;91;-126;1;1146985736
-262.086287;1.0111359;0.01464;0.0244;-63;-28;-126;1;1147001393
-262.075637;1.01016;0.018544;0.008784;0;-70;-98;1;1147012043
-262.062388;1.016992;0.013664;0.0;-77;-70;-98;1;1147025292
-262.049885;1.01016;0.010736;-0.006832;-140;-35;-98;1;1147037795
-262.036667;1.014064;0.008784;-0.016592;-56;-28;-91;1;1147051013
-262.012836;1.012112;0.00976;-0.023424;-98;35;-84;1;1147074844
-261.982398;1.012112;0.000976;-0.007808;-105;175;-91;1;1147105282
-261.961692;1.007232;0.00976;0.021472;-35;133;-126;1;1147125988
-261.939714;1.0150399;0.020496;0.023424;-133;21;-105;1;1147147966
-261.928519;1.013088;0.017568;0.021472;-203;28;-84;1;1147159161
-261.912264;1.014064;0.002928;0.011712;-63;-28;-42;1;1147175416
-261.901026;1.016016;0.0;-0.003904;-70;-56;-63;1;1147186654
-261.877806;1.016016;0.01464;-0.026352;-56;-21;-98;1;1147209874
-261.853185;1.013088;0.0;-0.00976;-140;91;-84;1;1147234495
-261.842953;1.008208;-0.001952;-0.000976;-140;133;-105;1;1147244727
-261.831867;1.009184;0.00488;0.00488;35;126;-112;1;1147255813
-261.820430;1.013088;0.012688;0.012688;0;119;-119;1;1147267250
-261.801101;1.01016;0.018544;0.025376;-119;112;-126;1;1147286579
-261.782690;1.0111359;0.01464;0.032208;-42;56;-70;1;1147304990
-261.769246;1.013088;0.003904;0.01464;-112;-49;-98;1;1147318434
-261.754108;1.012112;0.005856;0.002928;-98;-63;-91;1;1147333572
-261.719732;1.013088;0.012688;-0.01952;-49;14;-126;1;1147367948
-261.708480;1.0150399;0.012688;-0.020496;-42;28;-112;1;1147379200
-261.690543;1.012112;0.011712;-0.016592;-126;98;-105;1;1147397137
-261.677384;1.013088;0.011712;-0.007808;-28;133;-98;1;1147410296
-261.664779;1.013088;0.007808;0.012688;-42;119;-91;1;1147422901
-261.647707;1.012112;0.013664;0.035136;-140;91;-112;1;1147439973
-261.633616;1.013088;0.006832;0.038064;-119;28;-91;1;1147454064
-261.621290;1.014064;0.007808;0.035136;-84;-14;-70;1;1147466390
-261.583568;1.012112;0.008784;-0.015616;28;-112;-126;1;1147504112
-261.569134;1.013088;0.01952;-0.038064;28;-35;-140;1;1147518546
-261.519692;1.013088;0.016592;-0.003904;-112;161;-84;1;1147567988
-261.506194;1.01016;0.0244;0.021472;-175;133;-63;1;1147581486
-261.495926;1.012112;0.011712;0.03416;-147;91;-49;1;1147591754
-261.482471;1.0111359;0.005856;0.032208;-126;35;-28;1;1147605209
-261.471710;1.016016;-0.000976;0.02928;-154;-21;-42;1;1147615970
-261.444039;1.013088;-0.001952;-0.01464;-49;-56;-84;1;1147643641
-261.429460;1.01016;-0.002928;-0.0244;-56;-35;-112;1;1147658220
-261.410873;1.0150399;0.007808;-0.02928;-56;35;-140;1;1147676807
-261.399644;1.0150399;0.017568;-0.031232;-63;98;-126;1;1147688036
-261.388238;1.01016;0.018544;-0.018544;-77;161;-105;1;1147699442
-261.376953;1.013088;0.017568;-0.002928;-84;196;-91;1;1147710727
-261.365876;1.013088;0.012688;0.023424;-98;154;-84;1;1147721804
-261.349904;1.012112;0.013664;0.026352;-105;105;-84;1;1147737776
-261.327712;1.01016;0.011712;0.025376;-126;42;-63;1;1147759968
-261.312810;1.009184;-0.00488;0.015616;-133;-14;-49;1;1147774870
-261.300826;1.012112;-0.011712;0.000976;-42;-42;-77;1;1147786854
-261.289651;1.016016;-0.010736;-0.008784;-56;-56;-119;1;1147798029
-261.277851;1.01016;-0.001952;-0.022448;-63;-35;-154;1;1147809829
-261.266592;1.008208;0.003904;-0.021472;-42;7;-161;1;1147821088
-261.251866;1.012112;0.01464;-0.017568;-70;98;-140;1;1147835814
-261.237474;1.012112;0.013664;-0.008784;-119;140;-147;1;1147850206
-261.202851;1.009184;0.017568;0.01952;-105;70;-105;1;1147884829
-261.180758;1.01016;0.007808;0.022448;-105;35;-84;1;1147906922
-261.169430;1.0111359;0.005856;0.025376;-98;-14;-91;1;1147918250
-261.119133;1.016992;0.001952;-0.021472;0;-28;-126;1;1147968547
-261.100014;1.012112;0.00976;-0.018544;-42;42;-161;1;1147987666
-261.086072;1.012112;0.01952;-0.010736;49;84;-147;1;1148001608
-261.074641;1.0179679;0.022448;-0.00976;-70;77;-126;1;1148013039
-261.057062;1.009184;0.025376;0.003904;-84;119;-91;1;1148030618
-261.044964;1.012112;0.015616;0.012688;-91;119;-63;1;1148042716
-261.033505;1.0150399;0.01464;0.022448;-49;98;-63;1;1148054175
-261.012841;1.01016;0.008784;0.025376;-189;-7;-63;1;1148074839
-261.000030;1.012112;0.0;0.008784;-91;-56;-35;1;1148087650
-260.989718;1.0111359;-0.001952;0.003904;-175;-49;-70;1;1148097962
-260.978697;1.012112;0.002928;-0.002928;-119;-42;-98;1;1148108983
-260.967829;1.012112;0.006832;-0.005856;-14;-42;-98;1;1148119851
-260.954452;1.0150399;0.006832;-0.015616;-63;-63;-105;1;1148133228
-260.940577;1.016016;0.011712;-0.027328;-77;-42;-112;1;1148147103
-260.929527;1.013088;0.010736;-0.030256;-91;63;-98;1;1148158153
-260.917767;1.014064;0.012688;-0.021472;-84;140;-91;1;1148169913
-260.903356;1.01016;0.017568;-0.001952;-49;189;-91;1;1148184324
-260.880959;1.009184;0.01464;0.016592;-175;140;-70;1;1148206721
-260.869311;1.013088;0.006832;0.02928;-189;84;-63;1;1148218369
-260.847719;1.008208;-0.000976;0.0244;-49;0;-56;1;1148239961
-260.833113;1.012112;-0.005856;0.016592;-84;-56;-77;1;1148254567
-260.811179;1.012112;-0.003904;-0.008784;-63;-77;-105;1;1148276501
-260.799429;1.016016;-0.002928;-0.021472;-70;-42;-126;1;1148288251
-260.786228;1.01016;0.011712;-0.023424;-49;35;-168;1;1148301452
-260.775922;1.013088;0.017568;-0.021472;-56;63;-147;1;1148311758
-260.758637;1.012112;0.01952;-0.016592;-49;91;-119;1;1148329043
-260.747857;1.014064;0.01952;-0.003904;-70;126;-105;1;1148339823
-260.728553;1.014064;0.012688;0.016592;-98;119;-98;1;1148359127
-260.710569;1.0111359;0.01464;0.020496;-147;70;-91;1;1148377111
-260.679976;1.012112;0.005856;0.023424;-63;35;-70;1;1148407704
-260.647577;1.014064;0.008784;-0.013664;-28;-56;-168;1;1148440103
-260.633561;1.012112;0.013664;-0.026352;-21;14;-140;1;1148454119
-260.621272;1.016016;0.018544;-0.020496;-49;56;-140;1;1148466408
-260.609575;1.012112;0.01952;-0.016592;-84;91;-126;1;1148478105
-260.589224;1.0150399;0.027328;-0.002928;-84;119;-105;1;1148498456
-260.578088;1.014064;0.026352;0.010736;-77;133;-63;1;1148509592
-260.564517;1.008208;0.013664;0.025376;-203;84;-56;1;1148523163
-260.549433;1.012112;0.00488;0.022448;-154;56;-42;1;1148538247
-260.517831;1.012112;-0.001952;0.007808;-77;-49;-77;1;1148569849
-260.485679;1.012112;0.003904;-0.017568;-14;-21;-112;1;1148602001
-260.473105;1.014064;0.013664;-0.01952;-56;56;-133;1;1148614575
-260.462943;1.01016;0.016592;-0.013664;-98;98;-133;1;1148624737
-260.443604;1.012112;0.01952;-0.002928;-70;126;-112;1;1148644076
-260.432364;1.014064;0.01952;0.015616;-42;98;-70;1;1148655316
-260.419582;1.013088;0.016592;0.016592;-119;98;-77;1;1148668098
-260.408879;1.0150399;0.017568;0.020496;-175;77;-63;1;1148678801
-260.394659;1.01016;0.008784;0.017568;-140;49;-42;1;1148693021
-260.382816;1.012112;0.000976;0.020496;-112;21;-35;1;1148704864
-260.371895;1.014064;-0.005856;0.002928;-147;-49;-84;1;1148715785
-260.341958;1.014064;0.0;-0.018544;-21;-28;-112;1;1148745722
-260.330893;1.0111359;0.000976;-0.01464;-70;63;-133;2;1148756787
-260.312840;1.0111359;0.00488;-0.012688;-91;77;-154;1;1148774840
-260.300874;1.016016;0.018544;-0.001952;-14;70;-147;1;1148786806
-260.289664;1.012112;0.0244;0.001952;-42;84;-133;1;1148798016
-260.278763;1.0111359;0.021472;0.005856;-126;84;-119;1;1148808917
-260.267762;1.0111359;0.01952;0.011712;-84;84;-84;1;1148819918
-260.223276;1.01016;0.003904;0.00976;-154;-14;-84;1;1148864404
-260.202732;1.01016;-0.001952;-0.00488;-42;-14;-91;1;1148884948
-260.186953;1.013088;0.0;-0.00976;-98;7;-133;1;1148900727
-260.175361;1.01016;0.000976;-0.008784;-42;28;-147;1;1148912319
-260.164618;1.013088;0.00488;-0.007808;56;35;-147;1;1148923062
-260.150892;1.016016;0.010736;-0.007808;21;49;-154;1;1148936788
-260.139883;1.01016;0.017568;-0.003904;-63;84;-161;1;1148947797
-260.127404;1.0150399;0.030256;0.006832;-154;84;-126;1;1148960276
-260.116775;1.0111359;0.02928;0.010736;-63;84;-91;1;1148970905
-260.105161;1.0111359;0.025376;0.012688;-49;56;-56;1;1148982519
-260.079813;1.01016;0.011712;0.010736;-224;21;-42;1;1149007867
-260.068560;1.007232;0.006832;0.008784;-112;14;-21;1;1149019120
-260.045793;1.012112;-0.008784;-0.006832;-182;7;-77;1;1149041887
-260.033596;1.013088;-0.007808;-0.010736;-133;14;-98;1;1149054084
-260.020854;1.012112;-0.005856;-0.011712;-21;42;-105;1;1149066826
-260.009635;1.0111359;-0.001952;-0.00488;-14;77;-119;1;1149078045
-259.994509;1.01016;0.012688;0.0;-28;70;-168;1;1149093171
-259.979619;1.013088;0.026352;0.001952;0;63;-147;1;1149108061
-259.958069;1.0150399;0.028304;0.00488;-35;77;-84;1;1149129611
-259.947993;1.013088;0.028304;0.005856;-161;70;-63;1;1149139687
-259.927385;1.012112;0.013664;0.00976;-147;42;-21;1;1149160295
-259.904235;1.012112;-0.011712;-0.001952;-182;35;-42;1;1149183445
-259.890872;1.009184;-0.013664;-0.001952;-154;42;-63;1;1149196808
-259.878544;1.0111359;-0.016592;-0.000976;-147;28;-91;1;1149209136
-259.865172;1.0111359;-0.00488;-0.002928;-14;42;-161;1;1149222508
-259.854184;1.0150399;0.007808;-0.001952;-28;42;-189;1;1149233496
-259.817706;1.016016;0.01952;0.010736;-56;63;-147;1;1149269974
-259.804194;1.0111359;0.026352;0.003904;-28;21;-112;1;1149283486
-259.775749;1.012112;0.020496;0.0;-133;28;-77;1;1149311931
-259.764890;1.012112;0.012688;0.000976;-161;35;-63;1;1149322790
-259.750034;1.012112;-0.003904;0.002928;-98;28;-56;1;1149337646
-259.732855;1.014064;-0.002928;-0.006832;-161;14;-105;1;1149354825
-259.709835;1.012112;-0.001952;-0.002928;-14;56;-126;1;1149377845
-259.698733;1.014064;0.000976;0.001952;-91;56;-161;1;1149388947
-259.686287;1.013088;0.006832;0.001952;-42;70;-182;1;1149401393
-259.673574;1.012112;0.01464;0.00488;14;56;-161;1;1149414106
-259.647603;1.012112;0.030256;0.002928;-175;35;-126;1;1149440077
-259.633637;1.0111359;0.026352;0.003904;-112;28;-91;1;1149454043
-259.612821;1.014064;0.013664;-0.001952;-119;7;-49;1;1149474859
-259.601672;1.01016;0.008784;-0.006832;-175;21;-63;1;1149486008
-259.582790;1.01016;-0.000976;-0.00488;-91;49;-35;1;1149504890
-259.569803;1.0111359;-0.003904;0.002928;-140;56;-98;1;1149517877
-259.543314;1.014064;0.003904;0.002928;-14;49;-119;1;1149544366
-259.530435;1.014064;0.016592;0.008784;-105;49;-140;1;1149557245
-259.519338;1.013088;0.017568;0.00488;-63;35;-112;1;1149568342
-259.508444;1.012112;0.017568;0.00488;-21;21;-91;1;1149579236
-259.497372;1.008208;0.022448;-0.000976;-56;14;-98;1;1149590308
-259.486586;1.01016;0.021472;-0.000976;-112;21;-91;1;1149601094
-259.475252;1.014064;0.020496;-0.001952;-119;42;-70;1;1149612428
-259.464812;1.012112;0.010736;0.0;-119;49;-35;1;1149622868
-259.450877;1.01016;0.007808;0.000976;-154;49;-42;1;1149636803
-259.439756;1.008208;0.003904;-0.002928;-161;42;-63;1;1149647924
-259.399983;1.014064;-0.003904;0.006832;-147;70;-112;1;1149687697
-259.383434;1.014064;0.006832;0.006832;-49;35;-126;1;1149704246
-259.366398;1.013088;0.013664;0.000976;-14;28;-133;1;1149721282
-259.344160;1.014064;0.015616;0.005856;-70;35;-112;1;1149743520
-259.332561;1.0111359;0.015616;0.002928;-49;14;-98;1;1149755119
-259.317280;1.0111359;0.011712;-0.007808;-98;7;-105;1;1149770400
-259.306591;1.012112;0.010736;-0.008784;-63;28;-98;1;1149781089
-259.282649;1.012112;0.003904;0.000976;-91;84;-91;1;1149805031
-259.271164;1.013088;0.0;0.008784;-126;77;-105;1;1149816516
-259.245840;1.014064;0.007808;0.006832;-84;28;-140;1;1149841840
-259.234826;1.014064;0.015616;0.010736;-84;49;-140;1;1149852854
-259.208165;1.014064;0.013664;0.01464;-91;7;-105;1;1149879515
-259.182648;1.016992;0.01464;-0.00976;-84;-42;-105;1;1149905032
-259.171166;1.014064;0.012688;-0.015616;-77;-21;-91;1;1149916514
-259.143934;1.012112;0.002928;-0.00976;-98;77;-84;1;1149943746
-259.132668;1.012112;0.005856;-0.005856;-91;91;-91;1;1149955012
-259.121222;1.013088;0.007808;0.003904;-84;98;-105;1;1149966458
-259.110700;1.0150399;0.012688;0.008784;-105;98;-112;1;1149976980
-259.097823;1.0111359;0.013664;0.00976;-140;84;-105;1;1149989857
-259.086864;1.008208;0.012688;0.01464;-126;63;-91;1;1150000816
-259.074888;1.014064;0.00976;0.015616;-49;49;-70;1;1150012792
-259.058730;1.0111359;0.012688;0.00976;-84;14;-98;1;1150028950
-259.046871;1.0111359;0.010736;0.00976;-70;0;-105;1;1150040809
-259.035138;1.0111359;0.012688;0.002928;-84;-7;-91;1;1150052542
-259.007243;1.016016;0.008784;-0.010736;-84;21;-70;1;1150080437
-258.990052;1.0111359;0.005856;-0.005856;-126;63;-84;1;1150097628
-258.968509;1.01016;0.00488;-0.00488;-63;63;-84;1;1150119171
-258.957602;1.013088;0.008784;-0.000976;-133;70;-91;1;1150130078
-258.945572;1.01016;0.008784;0.0;-161;91;-112;1;1150142108
-258.934704;1.012112;0.006832;0.007808;-98;98;-105;1;1150152976
-258.912877;1.0111359;0.008784;0.01464;-28;63;-98;1;1150174803
-258.897813;1.0111359;0.006832;0.006832;-56;7;-119;1;1150189867
-258.886098;1.012112;0.00976;0.000976;-42;0;-105;1;1150201582
-258.869768;1.01016;0.00976;0.0;-63;21;-112;1;1150217912
-258.841579;1.0150399;0.00976;-0.002928;-147;28;-105;1;1150246101
-258.818380;1.012112;0.006832;-0.007808;-105;63;-119;1;1150269300
-258.802779;1.012112;0.008784;0.0;-105;84;-126;1;1150284901
-258.780644;1.014064;0.011712;0.00976;-98;70;-112;1;1150307036
-258.765412;1.014064;0.00976;0.013664;-77;42;-105;1;1150322268
-258.754836;1.0111359;0.006832;0.00976;-49;21;-119;1;1150332844
-258.740729;1.013088;0.013664;0.006832;-63;7;-119;1;1150346951
-258.722845;1.013088;0.017568;-0.000976;-70;14;-112;1;1150364835
-258.709028;1.013088;0.012688;-0.002928;-91;7;-98;1;1150378652
-258.683710;1.014064;0.005856;-0.007808;-91;42;-98;1;1150403970
-258.671805;1.014064;0.010736;-0.00488;-56;56;-105;1;1150415875
-258.660755;1.012112;0.011712;-0.001952;-98;63;-98;1;1150426925
-258.648104;1.012112;0.00976;0.003904;-91;84;-91;1;1150439576
-258.637490;1.009184;0.010736;0.006832;-112;70;-91;1;1150450190
-258.614362;1.0111359;0.012688;0.01464;-70;56;-91;1;1150473318
-258.601099;1.01016;0.010736;0.01464;-84;28;-91;1;1150486581
-258.548743;1.013088;0.00976;-0.00488;-63;14;-91;1;1150538937
-258.532841;1.012112;0.006832;-0.006832;-119;42;-98;1;1150554839
-258.519731;1.013088;0.007808;-0.00488;-112;56;-84;1;1150567949
-258.504792;1.012112;0.011712;0.0;-84;70;-91;1;1150582888
-258.493843;1.0150399;0.008784;0.001952;-112;77;-91;1;1150593837
-258.482835;1.013088;0.00976;0.00488;-91;70;-91;1;1150604845
-258.471460;1.008208;0.00976;0.00976;-84;63;-77;1;1150616220
-258.447377;1.0111359;0.007808;0.006832;-98;28;-98;1;1150640303
-258.432180;1.01016;0.006832;0.005856;-70;14;-105;1;1150655500
-258.421425;1.014064;0.006832;0.003904;-63;14;-105;1;1150666255
-258.409623;1.0111359;0.008784;0.0;-70;0;-112;1;1150678057
-258.398181;1.013088;0.00976;-0.005856;-63;7;-112;1;1150689499
-258.384466;1.014064;0.008784;-0.008784;-77;14;-119;1;1150703214
-258.373176;1.012112;0.012688;-0.00976;-49;49;-119;1;1150714504
-258.359673;1.014064;0.012688;-0.006832;-84;63;-119;1;1150728007
-258.347277;1.009184;0.010736;0.0;-84;70;-112;1;1150740403
-258.333621;1.016016;0.010736;0.007808;-84;70;-105;1;1150754059
-258.321325;1.0111359;0.010736;0.007808;-77;70;-105;1;1150766355
-258.301269;1.008208;0.007808;0.010736;-84;49;-105;1;1150786411
-258.286853;1.009184;0.007808;0.010736;-91;28;-112;1;1150800827
-258.275822;1.013088;0.012688;0.005856;-77;14;-112;1;1150811858
-258.262828;1.012112;0.012688;0.003904;-91;14;-112;1;1150824852
-258.251167;1.012112;0.01464;-0.00488;-84;7;-105;1;1150836513
-258.237605;1.01016;0.011712;-0.003904;-91;21;-112;1;1150850075
-258.224280;1.013088;0.010736;-0.005856;-63;28;-105;1;1150863400
-258.202860;1.014064;0.011712;-0.002928;-84;49;-105;1;1150884820
-258.190793;1.013088;0.01464;-0.001952;-84;63;-98;1;1150896887
-258.179703;1.013088;0.010736;0.001952;-105;77;-98;1;1150907977
-258.142290;1.012112;0.010736;0.012688;-105;49;-91;1;1150945390
-258.131218;1.01016;0.008784;0.007808;-119;35;-91;1;1150956462
-258.113569;1.0111359;0.00976;0.001952;-77;14;-84;1;1150974111
-258.102958;1.014064;0.008784;0.001952;-91;7;-84;1;1150984722
-258.091155;1.014064;0.005856;0.0;-98;7;-84;1;1150996525
-258.080464;1.013088;0.006832;0.002928;-119;14;-84;1;1151007216
-258.069830;1.012112;0.008784;-0.005856;-70;14;-84;1;1151017850
-258.043440;1.014064;0.00976;-0.007808;-98;49;-91;1;1151044240
-258.023293;1.0150399;0.00976;-0.001952;-84;56;-91;1;1151064387
-258.008946;1.009184;0.008784;0.003904;-70;63;-98;1;1151078734
-257.991695;1.014064;0.00976;0.007808;-84;49;-98;1;1151095985
-257.980669;1.012112;0.013664;0.006832;-119;49;-98;1;1151107011
-257.967678;1.012112;0.005856;0.010736;-98;28;-91;1;1151120002
-257.955454;1.0111359;0.005856;0.00488;-98;14;-98;1;1151132226
-257.943524;1.0111359;0.001952;0.003904;-56;0;-98;1;1151144156
-257.928216;1.0150399;0.007808;-0.000976;-70;-7;-105;1;1151159464
-257.910950;1.012112;0.00488;-0.007808;-49;21;-105;1;1151176730
-257.887073;1.01016;0.01464;-0.007808;-70;56;-126;1;1151200607
-257.876741;1.0111359;0.01464;-0.003904;-70;49;-112;1;1151210939
-257.855109;1.013088;0.012688;0.00488;-84;77;-105;1;1151232571
-257.821850;1.012112;0.008784;0.00976;-70;56;-98;1;1151265830
-257.802786;1.014064;0.005856;0.007808;-98;14;-98;1;1151284894
-257.780786;1.012112;0.008784;0.001952;-77;14;-112;1;1151306894
-257.762850;1.014064;0.00976;-0.00488;-56;14;-119;1;1151324830
-257.732595;1.016992;0.012688;-0.00488;-28;21;-105;1;1151355085
-257.716119;1.0111359;0.01464;-0.00488;-98;70;-112;1;1151371561
-257.702831;1.012112;0.010736;0.001952;-84;77;-91;1;1151384849
-257.691028;1.013088;0.01464;0.008784;-126;63;-84;1;1151396652
-257.679096;1.013088;0.013664;0.010736;-119;56;-84;1;1151408584
-257.668806;1.012112;0.00976;0.008784;-105;49;-70;1;1151418874
-257.645654;1.013088;0.00488;0.010736;-91;21;-84;1;1151442026
-257.634823;1.012112;0.006832;0.007808;-98;7;-91;1;1151452857
-257.623893;1.012112;0.00488;0.002928;-91;-7;-91;1;1151463787
-257.606516;1.012112;0.005856;-0.00488;-56;7;-91;1;1151481164
-257.582211;1.01016;0.011712;-0.006832;-42;42;-112;1;1151505469
-257.571911;1.014064;0.013664;-0.005856;-70;42;-105;1;1151515769
-257.541755;1.009184;0.011712;0.006832;-98;77;-91;1;1151545925
-257.515282;1.014064;0.012688;0.008784;-91;49;-91;1;1151572398
-257.492793;1.013088;0.008784;0.00976;-98;21;-84;1;1151594887
-257.480477;1.012112;0.000976;0.000976;-91;14;-91;1;1151607203
-257.468956;1.013088;0.000976;0.0;-56;14;-98;1;1151618724
-257.454178;1.0111359;0.002928;-0.002928;-63;7;-112;1;1151633502
-257.436903;1.01016;0.00488;-0.005856;-63;28;-126;1;1151650777
-257.418219;1.012112;0.008784;-0.002928;-63;56;-126;1;1151669461
-257.403917;1.0150399;0.010736;0.0;-49;63;-126;1;1151683763
-257.377797;1.009184;0.01952;0.002928;-56;56;-112;1;1151709883
-257.350434;1.0111359;0.011712;0.005856;-98;56;-98;1;1151737246
-257.339204;1.012112;0.00976;0.003904;-105;42;-98;1;1151748476
-257.328720;1.0111359;0.00976;0.005856;-91;28;-91;1;1151758960
-257.294717;1.013088;0.005856;0.000976;-77;35;-98;1;1151792963
-257.276960;1.013088;0.00976;0.000976;-70;35;-119;1;1151810720
-257.260226;1.012112;0.01464;-0.001952;-77;42;-119;1;1151827454
-257.249746;1.0111359;0.016592;0.000976;-63;35;-112;1;1151837934
-257.237364;1.012112;0.013664;0.001952;-77;49;-98;1;1151850316
-257.223681;1.009184;0.01464;0.00488;-98;49;-98;1;1151863999
-257.212799;1.009184;0.011712;0.003904;-91;42;-98;1;1151874881
-257.192826;1.012112;0.012688;0.001952;-77;42;-77;1;1151894854
-257.181757;1.01016;0.00976;0.001952;-105;35;-70;1;1151905923
-257.170648;1.014064;0.007808;0.003904;-133;35;-70;1;1151917032
-257.146968;1.012112;0.001952;0.001952;-70;21;-91;1;1151940712
-257.132136;1.0111359;0.001952;0.000976;-70;28;-98;1;1151955544
-257.121949;1.0111359;0.006832;0.001952;-77;28;-98;1;1151965731
-257.110286;1.0111359;0.008784;0.0;-70;28;-105;1;1151977394
-257.099743;1.009184;0.007808;-0.000976;-77;42;-105;1;1151987937
-257.088335;1.013088;0.007808;0.001952;-70;42;-105;1;1151999345
-257.076724;1.014064;0.007808;0.002928;-56;35;-105;1;1152010956
-257.061369;1.013088;0.016592;0.001952;-77;28;-112;1;1152026311
-257.050876;1.013088;0.01464;0.0;-98;35;-98;1;1152036804
-257.039613;1.012112;0.012688;0.001952;-98;42;-91;1;1152048067
-257.028675;1.013088;0.012688;0.002928;-91;42;-84;1;1152059005
-257.013389;1.012112;0.007808;0.001952;-112;28;-91;1;1152074291
-257.002360;1.012112;0.003904;0.0;-105;28;-91;1;1152085320
-256.971198;1.0111359;0.005856;0.0;-84;42;-112;1;1152116482
-256.956153;1.014064;0.007808;0.0;-70;49;-119;1;1152131527
-256.935483;1.014064;0.00976;0.001952;-63;56;-126;1;1152152197
-256.909623;1.013088;0.013664;0.005856;-63;42;-126;1;1152178057
-256.896677;1.014064;0.016592;0.005856;-49;35;-119;1;1152191003
-256.862721;1.014064;0.012688;0.0;-84;28;-91;1;1152224959
-256.835679;1.014064;0.010736;-0.00488;-98;35;-91;1;1152252001
-256.822916;1.014064;0.011712;-0.00488;-105;35;-91;1;1152264764
-256.802786;1.013088;0.005856;0.000976;-70;56;-91;1;1152284894
-256.791047;1.013088;0.008784;0.00488;-84;56;-105;1;1152296633
-256.779313;1.013088;0.011712;0.006832;-70;49;-119;1;1152308367
-256.767785;1.014064;0.011712;0.003904;-70;42;-112;1;1152319895
-256.756624;1.012112;0.017568;0.003904;-70;42;-105;1;1152331056
-256.742921;1.013088;0.013664;0.00488;-84;35;-98;1;1152344759
-256.731914;1.013088;0.013664;0.005856;-91;21;-91;1;1152355766
-256.720743;1.01016;0.012688;0.006832;-77;14;-77;1;1152366937
-256.708627;1.013088;0.00976;0.003904;-98;21;-84;1;1152379053
-256.697244;1.012112;0.012688;-0.002928;-84;21;-84;1;1152390436
-256.680576;1.012112;0.013664;-0.000976;-112;21;-77;1;1152407104
-256.667368;1.013088;0.008784;-0.000976;-98;35;-77;1;1152420312
-256.651939;1.014064;0.006832;0.000976;-91;35;-77;1;1152435741
-256.640764;1.014064;0.005856;-0.000976;-119;35;-84;1;1152446916
-256.628506;1.013088;0.00488;0.001952;-63;49;-84;1;1152459174
-256.580983;1.0150399;0.011712;0.003904;-63;21;-119;1;1152506697
-256.569746;1.013088;0.010736;0.00488;-49;21;-105;1;1152517934
-256.554805;1.012112;0.013664;-0.000976;-91;14;-105;1;1152532875
-256.532855;1.0150399;0.008784;-0.00488;-63;21;-91;1;1152554825
-256.521014;1.013088;0.00976;-0.002928;-70;28;-84;1;1152566666
-256.502862;1.0150399;0.001952;0.001952;-126;49;-98;1;1152584818
-256.480817;1.012112;0.002928;0.001952;-70;56;-112;1;1152606863
-256.467822;1.012112;0.010736;0.001952;-49;42;-105;1;1152619858
-256.454841;1.012112;0.008784;0.003904;-70;56;-112;1;1152632839
-256.432832;1.012112;0.00976;0.006832;-91;35;-112;1;1152654848
-256.384475;1.009184;0.00976;0.000976;-49;7;-105;1;1152703205
-256.369908;1.014064;0.013664;-0.000976;-49;7;-105;1;1152717772
-256.346025;1.012112;0.010736;-0.008784;-98;21;-105;1;1152741655
-256.334632;1.0111359;0.015616;-0.005856;-84;56;-91;1;1152753048
-256.302849;1.014064;0.00976;0.003904;-154;84;-84;1;1152784831
-256.289334;1.007232;0.007808;0.008784;-119;70;-84;1;1152798346
-256.276534;1.014064;0.005856;0.00976;-77;63;-77;1;1152811146
-256.265741;1.012112;0.002928;0.007808;-77;56;-84;1;1152821939
-256.254793;1.012112;0.006832;0.008784;-91;42;-98;1;1152832887
-256.243865;1.012112;0.00976;0.00488;-49;21;-105;1;1152843815
-256.230221;1.0111359;0.013664;0.007808;-35;14;-105;1;1152857459
-256.212841;1.014064;0.013664;0.0;-112;0;-105;1;1152874839
-256.201712;1.0111359;0.015616;-0.006832;-77;14;-84;1;1152885968
-256.190200;1.0150399;0.010736;-0.00488;-56;14;-77;1;1152897480
-256.176199;1.013088;0.00976;-0.007808;-105;28;-77;1;1152911481
-256.165673;1.01016;0.00976;-0.005856;-105;42;-84;1;1152922007
-256.152078;1.014064;0.00976;-0.002928;-98;63;-84;1;1152935602
-256.140744;1.012112;0.006832;0.000976;-112;70;-91;1;1152946936
-256.129706;1.012112;0.003904;0.00488;-126;70;-98;1;1152957974
-256.118584;1.013088;0.00488;0.006832;-112;56;-105;1;1152969096
-256.102518;1.0111359;0.002928;0.008784;-63;49;-105;1;1152985162
-256.091425;1.016016;0.00976;0.006832;-56;21;-119;1;1152996255
-256.076333;1.012112;0.013664;0.002928;-91;21;-126;1;1153011347
-256.059026;1.012112;0.010736;-0.002928;-42;14;-112;1;1153028654
-256.048110;1.012112;0.012688;-0.002928;-63;21;-112;1;1153039570
-256.037278;1.01016;0.013664;-0.003904;-105;28;-112;1;1153050402
-256.022839;1.013088;0.01464;-0.001952;-98;35;-105;1;1153064841
-255.990870;1.0111359;0.006832;-0.003904;-112;56;-105;1;1153096810
-255.978715;1.012112;0.008784;-0.000976;-70;70;-98;1;1153108965
-255.950613;1.009184;0.007808;0.007808;-112;84;-105;1;1153137067
-255.939748;1.0111359;0.007808;0.016592;-91;42;-112;1;1153147932
-255.915555;1.013088;0.011712;0.008784;-21;0;-112;1;1153172125
-255.892799;1.0111359;0.015616;-0.000976;-84;-7;-112;1;1153194881
-255.879523;1.014064;0.015616;-0.00488;-84;0;-98;1;1153208157
-255.866432;1.0111359;0.016592;-0.010736;-77;28;-91;1;1153221248
-255.855615;1.012112;0.01464;-0.006832;-91;35;-77;1;1153232065
-255.843994;1.01016;0.011712;-0.011712;-133;49;-77;1;1153243686
-255.826073;1.01016;0.010736;0.0;-126;91;-63;1;1153261607
-255.804581;1.0150399;0.005856;0.013664;-133;98;-70;1;1153283099
-255.780119;1.014064;0.005856;0.020496;-105;49;-77;1;1153307561
-255.769838;1.01016;0.002928;0.010736;-91;28;-91;1;1153317842
-255.745695;1.01016;0.010736;0.001952;-63;-14;-112;1;1153341985
-255.734117;1.01016;0.007808;-0.00488;-49;-21;-105;1;1153353563
-255.704748;1.0150399;0.011712;-0.016592;-56;35;-105;1;1153382932
-255.678396;1.0111359;0.015616;-0.006832;-119;77;-98;1;1153409284
-255.663780;1.01016;0.010736;0.002928;-105;91;-77;1;1153423900
-255.650833;1.01016;0.007808;0.00976;-126;98;-77;1;1153436847
-255.636393;1.01016;0.00488;0.016592;-126;91;-84;1;1153451287
-255.622869;1.012112;0.002928;0.021472;-105;35;-105;1;1153464811
-255.606858;1.009184;0.000976;0.01952;-91;0;-112;1;1153480822
-255.581576;1.0111359;0.007808;-0.003904;-28;-35;-140;1;1153506104
-255.556146;1.012112;0.012688;-0.011712;-7;-7;-147;1;1153531534
-255.535791;1.012112;0.018544;-0.015616;-28;28;-140;1;1153551889
-255.512838;1.013088;0.021472;0.001952;-126;119;-105;1;1153574842
-255.480278;1.012112;0.012688;0.017568;-126;70;-84;1;1153607402
-255.469127;1.013088;0.003904;0.018544;-112;42;-84;1;1153618553
-255.454215;1.009184;0.005856;0.015616;-119;14;-91;1;1153633465
-255.443665;1.012112;0.001952;0.013664;-77;0;-98;1;1153644015
-255.431245;1.013088;0.005856;0.003904;-49;-42;-119;1;1153656435
-255.412781;1.014064;0.005856;-0.011712;-35;-35;-126;1;1153674899
-255.400985;1.012112;0.017568;-0.013664;-35;7;-126;1;1153686695
-255.389657;1.0150399;0.01952;-0.016592;-56;35;-119;1;1153698023
-255.372991;1.013088;0.01952;-0.00976;-77;63;-112;1;1153714689
-255.358300;1.012112;0.018544;0.000976;-84;77;-77;1;1153729380
-255.345640;1.0150399;0.01952;0.002928;-91;84;-63;1;1153742040
-255.334718;1.013088;0.016592;0.007808;-147;77;-56;1;1153752962
-255.312775;1.01016;0.00976;0.008784;-126;49;-42;1;1153774905
-255.301011;1.013088;0.0;0.007808;-112;7;-56;1;1153786669
-255.289349;1.012112;0.0;0.002928;-91;0;-70;1;1153798331
-255.278669;1.013088;-0.002928;-0.002928;-84;-7;-84;1;1153809011
-255.266873;1.012112;0.0;-0.002928;-56;7;-98;1;1153820807
-255.254052;1.014064;0.0;-0.008784;-28;14;-119;1;1153833628
-255.242763;1.012112;0.002928;-0.006832;-28;14;-133;1;1153844917
-255.231737;1.012112;0.007808;-0.006832;-7;28;-133;1;1153855943
-255.212868;1.012112;0.016592;-0.002928;-35;70;-119;1;1153874812
-255.201766;1.01016;0.018544;0.002928;-98;84;-105;1;1153885914
-255.188803;1.013088;0.017568;0.008784;-91;56;-77;1;1153898877
-255.177852;1.012112;0.011712;0.00976;-98;42;-63;1;1153909828
-255.166745;1.0111359;0.00976;0.00488;-126;28;-63;1;1153920935
-255.110969;1.012112;-0.000976;-0.00488;-14;-7;-147;1;1153976711
-255.095366;1.0111359;0.011712;-0.00976;-14;35;-161;1;1153992314
-255.082733;1.012112;0.015616;-0.00976;-21;63;-154;1;1154004947
-255.070173;1.013088;0.022448;-0.002928;-42;77;-147;1;1154017507
-255.054696;1.014064;0.021472;0.002928;-70;56;-112;1;1154032984
-255.042563;1.008208;0.020496;0.006832;-119;63;-105;1;1154045117
-255.022824;1.014064;0.015616;0.00976;-133;56;-77;1;1154064856
-255.006108;1.0111359;0.006832;0.00976;-112;21;-84;1;1154081572
-254.982573;1.013088;0.005856;0.002928;-70;-7;-98;1;1154105107
-254.962798;1.0111359;0.006832;-0.00488;-56;14;-112;1;1154124882
-254.950894;1.016016;0.010736;-0.007808;-70;28;-119;1;1154136786
-254.937219;1.013088;0.00976;-0.006832;-63;35;-119;1;1154150461
-254.912832;1.012112;0.018544;-0.000976;-56;63;-105;1;1154174848
-254.901028;1.0111359;0.020496;0.002928;-98;70;-105;1;1154186652
-254.880993;1.0111359;0.01952;0.007808;-112;70;-70;1;1154206687
-254.869453;1.014064;0.018544;0.00976;-119;56;-56;1;1154218227
-254.858315;1.0111359;0.015616;0.007808;-112;42;-49;1;1154229365
-254.846850;1.012112;0.00976;0.007808;-119;35;-49;1;1154240830
-254.832880;1.013088;0.002928;0.005856;-147;14;-63;1;1154254800
-254.821655;1.013088;0.000976;0.001952;-126;14;-77;1;1154266025
-254.810979;1.012112;0.000976;-0.003904;-91;14;-84;1;1154276701
-254.797868;1.014064;-0.000976;-0.005856;-56;14;-98;1;1154289812
-254.786384;1.013088;0.001952;-0.005856;-56;28;-105;1;1154301296
-254.774878;1.009184;0.006832;-0.006832;-56;42;-119;1;1154312802
-254.750649;1.0111359;0.015616;-0.002928;-70;56;-119;1;1154337031
-254.731308;1.014064;0.018544;0.001952;-84;70;-98;1;1154356372
-254.711090;1.014064;0.01464;0.00976;-133;63;-70;1;1154376590
-254.696072;1.0111359;0.007808;0.010736;-140;42;-70;1;1154391608
-254.657294;1.0111359;-0.002928;0.002928;-63;14;-98;1;1154430386
-254.645787;1.01016;-0.001952;-0.002928;-77;14;-119;1;1154441893
-254.624173;1.012112;0.001952;-0.003904;-35;21;-154;1;1154463507
-254.610885;1.0150399;0.010736;-0.005856;7;42;-161;1;1154476795
-254.596373;1.0111359;0.016592;-0.002928;-28;56;-161;1;1154491307
-254.581045;1.013088;0.022448;0.000976;-42;70;-126;1;1154506635
-254.569788;1.016016;0.022448;0.006832;-70;63;-112;1;1154517892
-254.557231;1.012112;0.020496;0.005856;-112;63;-91;1;1154530449
-254.546828;1.012112;0.01952;0.00488;-126;56;-84;1;1154540852
-254.535052;1.012112;0.01952;0.008784;-126;42;-70;1;1154552628
-254.521327;1.014064;0.013664;0.007808;-140;28;-56;1;1154566353
-254.504518;1.0111359;-0.000976;0.0;-133;14;-63;1;1154583162
-254.479252;1.012112;-0.001952;-0.005856;-42;21;-119;1;1154608428
-254.468157;1.0111359;0.006832;-0.002928;-35;28;-133;1;1154619523
-254.453675;1.012112;0.00976;-0.00488;-42;35;-140;1;1154634005
-254.411150;1.01016;0.026352;0.00488;-63;63;-98;1;1154676530
-254.400118;1.012112;0.025376;0.003904;-112;56;-77;1;1154687562
-254.387108;1.0111359;0.016592;0.002928;-147;35;-42;1;1154700572
-254.372221;1.008208;0.008784;0.002928;-175;21;-35;1;1154715459
-254.355911;1.013088;0.0;0.002928;-133;21;-49;1;1154731769
-254.344633;1.014064;-0.001952;-0.001952;-112;28;-56;1;1154743047
-254.331947;1.014064;-0.003904;-0.000976;-105;28;-77;1;1154755733
-254.311233;1.013088;0.000976;-0.001952;-56;35;-119;1;1154776447
-254.299967;1.012112;0.007808;-0.003904;-35;49;-133;1;1154787713
-254.284459;1.013088;0.012688;0.001952;-35;63;-133;1;1154803221
-254.273744;1.014064;0.013664;0.00488;-63;56;-126;1;1154813936
-254.257324;1.0150399;0.021472;0.001952;-70;49;-112;1;1154830356
-254.246599;1.013088;0.018544;0.006832;-70;49;-98;1;1154841081
-254.211330;1.01016;0.006832;0.001952;-147;35;-63;1;1154876350
-254.199450;1.012112;0.005856;0.0;-140;28;-63;1;1154888230
-254.179622;1.014064;-0.003904;-0.001952;-105;35;-105;1;1154908058
-254.166322;1.0150399;-0.00488;-0.003904;-56;42;-112;1;1154921358
-254.141789;1.013088;0.005856;0.000976;-35;63;-154;1;1154945891
-254.129606;1.013088;0.013664;0.003904;-28;56;-161;1;1154958074
-254.117498;1.0150399;0.01952;0.005856;-14;56;-154;1;1154970182
-254.106842;1.012112;0.022448;0.007808;-28;49;-140;1;1154980838
-254.084372;1.0111359;0.0244;0.003904;-84;28;-105;1;1155003308
-254.072667;1.013088;0.01952;0.003904;-133;28;-70;1;1155015013
-254.037757;1.016992;0.00488;0.001952;-119;35;-70;1;1155049923
-254.012791;1.013088;0.003904;-0.000976;-84;42;-105;1;1155074889
-253.979648;1.01016;0.01464;0.005856;-56;49;-126;1;1155108032
-253.967530;1.01016;0.015616;0.006832;-63;35;-126;1;1155120150
-253.954609;1.012112;0.017568;0.00488;-49;28;-112;1;1155133071
-253.932821;1.013088;0.021472;0.00488;-98;21;-91;1;1155154859
-253.921619;1.013088;0.022448;-0.000976;-119;21;-56;1;1155166061
-253.910475;1.014064;0.01464;-0.001952;-126;21;-42;1;1155177205
-253.880956;1.0150399;-0.000976;-0.001952;-154;42;-56;1;1155206724
-253.868511;1.013088;-0.002928;-0.001952;-133;56;-63;1;1155219169
-253.855685;1.014064;-0.00488;0.0;-105;63;-77;1;1155231995
-253.841976;1.012112;-0.000976;0.003904;-84;56;-98;1;1155245704
-253.830798;1.0111359;-0.000976;0.006832;-56;49;-112;1;1155256882
-253.812832;1.0150399;0.010736;0.006832;-28;28;-133;1;1155274848
-253.761098;1.013088;0.016592;-0.002928;-77;14;-91;1;1155326582
-253.735083;1.012112;0.00976;-0.007808;-133;42;-70;1;1155352597
-253.720618;1.012112;0.005856;-0.003904;-154;49;-70;1;1155367062
-253.702829;1.012112;0.0;-0.002928;-119;70;-91;1;1155384851
-253.680850;1.0150399;-0.002928;0.005856;-84;70;-126;1;1155406830
-253.669535;1.013088;-0.00488;0.008784;-42;63;-140;1;1155418145
-253.652808;1.013088;0.010736;0.00976;-28;35;-168;1;1155434872
-253.636900;1.0150399;0.01952;0.002928;-21;14;-147;1;1155450780
-253.622119;1.012112;0.023424;-0.000976;-42;14;-147;1;1155465561
-253.610293;1.0111359;0.026352;-0.001952;-56;21;-126;1;1155477387
-253.597917;1.01016;0.025376;-0.001952;-77;21;-98;1;1155489763
-253.584965;1.013088;0.01464;-0.003904;-126;42;-63;1;1155502715
-253.572347;1.014064;0.00976;-0.000976;-154;49;-56;1;1155515333
-253.561743;1.01016;0.00976;-0.000976;-168;63;-63;1;1155525937
-253.549899;1.013088;0.005856;0.003904;-182;70;-70;1;1155537781
-253.512801;1.013088;0.003904;0.010736;-56;28;-105;1;1155574879
-253.499548;1.014064;0.008784;0.011712;-35;14;-119;1;1155588132
-253.486556;1.0111359;0.00976;0.006832;-28;7;-126;1;1155601124
-253.475541;1.013088;0.018544;-0.001952;-21;-7;-119;1;1155612139
-253.464537;1.0111359;0.01952;-0.003904;-21;-7;-112;1;1155623143
-253.452061;1.013088;0.022448;-0.00488;-56;0;-98;1;1155635619
-253.440111;1.0150399;0.0244;-0.008784;-84;21;-84;1;1155647569
-253.429168;1.014064;0.023424;-0.008784;-105;42;-63;1;1155658512
-253.401123;1.012112;0.007808;-0.002928;-182;56;-28;1;1155686557
-253.389861;1.013088;0.001952;0.003904;-161;63;-35;1;1155697819
-253.377078;1.0150399;-0.000976;0.00488;-154;56;-42;1;1155710602
-253.342291;1.01016;-0.005856;0.011712;-21;0;-126;1;1155745389
-253.309628;1.012112;0.015616;-0.005856;49;-14;-161;1;1155778052
-253.291025;1.0111359;0.022448;-0.010736;-49;14;-133;1;1155796655
-253.279569;1.012112;0.025376;-0.012688;-63;28;-112;1;1155808111
-253.261442;1.0150399;0.016592;-0.010736;-112;56;-84;1;1155826238
-253.250270;1.009184;0.011712;-0.005856;-154;84;-70;1;1155837410
-253.217919;1.014064;0.001952;0.008784;-119;98;-70;1;1155869761
-253.198016;1.014064;-0.000976;0.013664;-126;56;-112;1;1155889664
-253.152732;1.012112;0.00488;0.000976;7;-14;-147;1;1155934948
-253.135136;1.014064;0.01464;-0.00976;-14;14;-154;1;1155952544
-253.123517;1.014064;0.023424;-0.00976;-35;21;-140;1;1155964163
-253.102936;1.013088;0.023424;-0.007808;-35;56;-105;1;1155984744
-253.082763;1.016016;0.021472;-0.006832;-133;77;-84;1;1156004917
-253.071602;1.016992;0.022448;-0.001952;-147;98;-63;1;1156016078
-253.052778;1.012112;0.012688;0.007808;-189;98;-49;1;1156034902
-253.040852;1.016016;0.005856;0.011712;-210;77;-49;1;1156046828
-253.029491;1.009184;0.005856;0.011712;-175;63;-56;1;1156058189
-253.012742;1.0111359;-0.001952;0.007808;-84;28;-70;1;1156074938
-252.995825;1.012112;0.00488;0.007808;-56;28;-119;1;1156091855
-252.972815;1.01016;0.008784;0.0;0;-7;-126;1;1156114865
-252.961791;1.016016;0.013664;-0.006832;21;0;-119;1;1156125889
-252.950324;1.0150399;0.020496;-0.008784;-35;14;-119;1;1156137356
-252.932248;1.012112;0.022448;-0.006832;-98;70;-91;1;1156155432
-252.912771;1.0150399;0.01464;0.002928;-133;56;-49;1;1156174909
-252.855972;1.014064;-0.002928;0.006832;-98;14;-91;1;1156231708
-252.841959;1.012112;-0.00488;0.00488;-49;-7;-105;1;1156245721
-252.830553;1.0111359;-0.002928;0.0;-35;-7;-119;1;1156257127
-252.812496;1.012112;0.008784;-0.002928;-28;28;-161;1;1156275184
-252.800996;1.0111359;0.015616;-0.002928;-35;35;-161;1;1156286684
-252.777679;1.014064;0.01952;-0.00488;0;42;-133;1;1156310001
-252.763088;1.0150399;0.023424;-0.002928;-98;70;-119;1;1156324592
-252.740515;1.0111359;0.018544;0.003904;-147;77;-84;1;1156347165
-252.722860;1.013088;0.011712;0.003904;-161;49;-70;1;1156364820
-252.701018;1.012112;-0.003904;0.001952;-105;49;-91;1;1156386662
-252.683280;1.0111359;-0.001952;0.005856;-77;42;-119;1;1156404400
-252.672955;1.012112;0.002928;0.00488;-70;35;-140;1;1156414725
-252.661373;1.01016;0.00488;0.000976;-35;21;-147;1;1156426307
-252.649501;1.013088;0.007808;-0.00488;-7;21;-154;1;1156438179
-252.634443;1.013088;0.015616;-0.007808;0;42;-154;1;1156453237
-252.611881;1.01016;0.027328;-0.002928;-133;70;-112;1;1156475799
-252.592674;1.016016;0.01952;-0.000976;-182;77;-70;1;1156495006
-252.578096;1.0150399;0.016592;0.001952;-196;84;-63;1;1156509584
-252.566864;1.013088;0.017568;0.007808;-210;91;-56;1;1156520816
-252.552075;1.012112;0.00488;0.006832;-238;70;-49;1;1156535605
-252.540900;1.013088;0.002928;0.008784;-224;56;-56;1;1156546780
-252.529718;1.01016;-0.000976;0.007808;-182;42;-70;1;1156557962
-252.515238;1.013088;-0.000976;0.005856;-140;42;-84;1;1156572442
-252.504589;1.0111359;0.002928;0.006832;-119;42;-98;1;1156583091
-252.481164;1.012112;0.010736;0.003904;-56;14;-126;1;1156606516
-252.470610;1.013088;0.012688;0.000976;-28;21;-119;1;1156617070
-252.456162;1.0150399;0.013664;-0.001952;-28;35;-119;1;1156631518
-252.445578;1.012112;0.022448;-0.002928;-49;49;-112;1;1156642102
-252.428679;1.014064;0.021472;0.002928;-105;63;-77;1;1156659001
-252.402343;1.012112;0.015616;0.003904;-126;56;-49;1;1156685337
-252.381244;1.012112;0.003904;0.00488;-112;56;-56;1;1156706436
-252.364121;1.012112;-0.00488;0.008784;-70;35;-70;1;1156723559
-252.351843;1.01016;-0.002928;0.007808;-49;21;-91;1;1156735837
-252.319262;1.0111359;0.011712;0.000976;7;14;-154;1;1156768418
-252.306367;1.012112;0.01464;-0.001952;-7;14;-154;1;1156781313
-252.292728;1.013088;0.020496;-0.001952;-35;21;-140;1;1156794952
-252.280914;1.0111359;0.021472;-0.001952;-49;21;-133;1;1156806766
-252.268652;1.0111359;0.017568;0.0;-35;35;-119;1;1156819028
-252.253756;1.01016;0.01952;0.005856;-112;49;-98;1;1156833924
-252.240348;1.01016;0.01464;0.005856;-147;56;-91;1;1156847332
-252.222810;1.012112;0.00976;0.006832;-133;28;-70;1;1156864870
-252.210247;1.016016;0.001952;0.003904;-133;28;-77;1;1156877433
-252.198588;1.012112;-0.001952;0.00488;-112;28;-91;1;1156889092
-252.183747;1.01016;0.001952;0.002928;-49;21;-119;1;1156903933
-252.160759;1.016992;0.010736;0.0;-42;21;-147;1;1156926921
-252.143708;1.014064;0.015616;0.0;0;35;-140;1;1156943972
-252.119560;1.013088;0.026352;0.000976;-42;42;-112;1;1156968120
-252.106000;1.0111359;0.0244;-0.002928;-126;42;-77;1;1156981680
-252.094732;1.0111359;0.020496;-0.000976;-133;49;-63;1;1156992948
-252.083784;1.0111359;0.016592;0.001952;-140;56;-49;1;1157003896
-252.072626;1.012112;0.010736;0.002928;-154;49;-49;1;1157015054
-252.060038;1.01016;0.003904;0.001952;-161;49;-49;1;1157027642
-252.046953;1.012112;0.001952;0.003904;-168;49;-56;1;1157040727
-252.034431;1.012112;-0.002928;0.007808;-126;49;-84;1;1157053249
-252.023922;1.013088;0.002928;0.006832;-98;49;-98;1;1157063758
-252.011471;1.014064;0.003904;0.006832;-70;49;-119;1;1157076209
-251.997982;1.012112;0.011712;0.003904;-56;42;-126;1;1157089698
-251.984224;1.0111359;0.01464;0.003904;-56;35;-119;1;1157103456
-251.945373;1.012112;0.01952;0.003904;-77;42;-91;1;1157142307
-251.913095;1.009184;0.001952;0.002928;-140;42;-49;1;1157174585
-251.892801;1.012112;-0.003904;0.003904;-140;49;-77;1;1157194879
-251.881729;1.014064;-0.00488;0.000976;-98;42;-98;1;1157205951
-251.862760;1.013088;0.0;-0.000976;-21;35;-126;1;1157224920
-251.850634;1.012112;0.001952;0.003904;-21;35;-147;1;1157237046
-251.832857;1.009184;0.007808;0.003904;-21;42;-154;1;1157254823
-251.817863;1.0111359;0.013664;0.005856;0;35;-154;1;1157269817
-251.805146;1.012112;0.01952;0.005856;-7;21;-140;1;1157282534
-251.791146;1.0150399;0.0244;0.0;-70;28;-112;1;1157296534
-251.780424;1.012112;0.022448;0.002928;-112;35;-98;1;1157307256
-251.769195;1.013088;0.021472;-0.002928;-140;42;-77;1;1157318485
-251.754511;1.016016;0.013664;0.001952;-154;35;-70;1;1157333169
-251.732767;1.012112;0.006832;-0.002928;-168;42;-70;1;1157354913
-251.718962;1.0111359;-0.001952;0.000976;-105;56;-91;1;1157368718
-251.697590;1.0111359;0.0;0.005856;-77;56;-126;1;1157390090
-251.672482;1.012112;0.007808;0.007808;-35;28;-154;1;1157415198
-251.649780;1.012112;0.020496;0.0;-14;21;-147;1;1157437900
-251.638964;1.0150399;0.027328;0.001952;-42;21;-126;1;1157448716
-251.613473;1.013088;0.028304;-0.001952;-70;21;-70;1;1157474207
-251.602122;1.016016;0.0244;-0.003904;-105;35;-49;1;1157485558
-251.582353;1.012112;0.01464;-0.00488;-196;56;-28;1;1157505327
-251.571671;1.0111359;0.002928;0.0;-203;56;-21;1;1157516009
-251.560247;1.0111359;-0.002928;;1.7639999;0.147;0.196;1;1157527433
-251.547925;1.0111359;-0.007808;0.003904;-105;63;-70;1;1157539755
-251.536712;1.014064;-0.003904;0.00976;-84;63;-98;1;1157550968
-251.523872;1.013088;-0.002928;0.013664;-49;49;-126;1;1157563808
-251.476282;1.012112;0.026352;0.0;-35;14;-133;1;1157611398
-251.461724;1.013088;0.025376;0.000976;-63;28;-105;1;1157625956
-251.450719;1.013088;0.027328;-0.003904;-70;28;-77;1;1157636961
-251.439218;1.014064;0.022448;-0.000976;-98;35;-63;1;1157648462
-251.421395;1.012112;0.010736;-0.000976;-161;49;-42;1;1157666285
-251.408295;1.013088;0.005856;-0.000976;-168;63;-42;1;1157679385
-251.387830;1.013088;-0.003904;0.00488;-154;63;-63;1;1157699850
-251.376458;1.013088;-0.007808;0.006832;-105;63;-77;1;1157711222
-251.358588;1.013088;-0.001952;0.00976;-56;35;-126;1;1157729092
-251.347878;1.012112;0.0;0.010736;-28;28;-147;1;1157739802
-251.332995;1.0111359;0.008784;0.005856;-14;7;-175;1;1157754685
-251.311305;1.014064;0.018544;0.000976;7;0;-161;1;1157776375
-251.298214;1.014064;0.022448;-0.001952;0;7;-147;1;1157789466
-251.285718;1.013088;0.02928;-0.007808;-14;21;-119;1;1157801962
-251.274086;1.012112;0.023424;0.0;-126;42;-70;1;1157813594
-251.257961;1.013088;0.017568;-0.005856;-140;49;-56;1;1157829719
-251.246884;1.014064;0.013664;0.002928;-175;56;-49;1;1157840796
-251.234586;1.01016;0.008784;0.000976;-182;63;-49;1;1157853094
-251.222880;1.013088;-0.001952;0.006832;-112;63;-70;1;1157864800
-251.203875;1.0150399;-0.002928;0.00976;-105;56;-84;1;1157883805
-251.191350;1.0150399;0.003904;0.008784;-70;28;-126;1;1157896330
-251.180719;1.012112;0.007808;0.006832;-56;21;-140;1;1157906961
-251.169607;1.013088;0.00976;0.000976;-14;14;-140;1;1157918073
-251.156169;1.013088;0.015616;-0.001952;-7;14;-133;1;1157931511
-251.145549;1.0150399;0.020496;-0.002928;-42;14;-133;1;1157942131
-251.132581;1.013088;0.025376;-0.006832;-77;42;-98;1;1157955099
-251.121851;1.012112;0.025376;-0.00488;-98;56;-84;1;1157965829
-251.104194;1.013088;0.021472;-0.000976;-119;70;-63;1;1157983486
-251.063472;1.0111359;0.00488;0.007808;-175;77;-35;1;1158024208
-251.048091;1.007232;-0.00976;0.013664;-161;49;-77;1;1158039589
-251.033854;1.012112;-0.00488;0.010736;-119;35;-91;1;1158053826
-250.992738;1.014064;0.0076;0.000976;-14;-7;-147;1;1158094942
-250.981024;1.014064;0.017568;-0.002928;0;7;-147;1;1158106656
-250.962784;1.012112;0.028304;-0.005856;-14;35;-112;1;1158124896
-250.947843;1.01016;0.023424;-0.001952;-91;63;-70;1;1158139837
-250.934345;1.01016;0.01952;0.000976;-126;70;-49;1;1158153335
-250.922443;1.0111359;0.010736;0.002928;-154;70;-42;1;1158165237
-250.902859;1.012112;-0.002928;0.00976;-133;56;-49;1;1158184821
-250.891649;1.0111359;-0.;;1.7639999;0.147;0.147;1;1158196031
-250.880766;1.012112;-0.011712;0.013664;-77;35;-91;1;1158206914
-250.867909;1.012112;-0.006832;0.006832;-63;0;-147;1;1158219771
-250.848528;1.0150399;0.00976;0.0;28;-7;-182;1;1158239152
-250.836330;1.0111359;0.016592;-0.003904;35;0;-175;1;1158251350
-250.824447;1.013088;0.021472;-0.005856;14;7;-168;1;1158263233
-250.801251;1.013088;0.033184;-0.006832;-63;42;-126;1;1158286429
-250.772765;1.012112;0.01952;0.000976;-182;70;-49;1;1158314915
-250.761534;1.0150399;0.016592;0.005856;-203;77;-42;1;1158326146
-250.750660;1.014064;0.007808;0.006832;-196;77;-35;1;1158337020
-250.739167;1.0111359;-0.00488;0.010736;-175;56;-42;1;1158348513
-250.723619;1.012112;-0.007808;0.010736;-105;35;-84;1;1158364061
-250.712761;1.0111359;-0.005856;0.006832;-91;14;-112;1;1158374919
-250.700869;1.013088;-0.002928;0.005856;-49;14;-140;1;1158386811
-250.687900;1.013088;0.005856;0.0;-14;14;-140;1;1158399780
-250.674650;1.01016;0.016592;-0.00488;-28;21;-147;1;1158413030
-250.663755;1.0150399;0.023424;-0.002928;-21;35;-140;1;1158423925
-250.644945;1.012112;0.031232;-0.002928;-84;63;-91;1;1158442735
-250.612471;1.01016;0.015616;0.00488;-196;63;-42;1;1158475209
-250.600354;1.009184;0.011712;0.007808;-189;63;-28;1;1158487326
-250.589539;1.012112;0.003904;0.006832;-175;56;-21;1;1158498141
-250.576473;1.01016;-0.000976;0.005856;-161;56;-28;1;1158511207
-250.565658;1.0111359;-0.005856;0.008784;-161;56;-49;1;1158522022
-250.550259;1.0111359;-0.008784;0.008784;-126;28;-98;1;1158537421
-250.539439;1.012112;-0.003904;0.002928;-70;28;-112;1;1158548241
-250.528753;1.014064;0.0;0.001952;-42;21;-133;1;1158558927
-250.503479;1.014064;0.018544;0.0;-28;42;-140;1;1158584201
-250.478116;1.013088;0.021472;0.005856;-70;49;-112;1;1158609564
-250.466868;1.013088;0.026352;0.005856;-98;49;-98;1;1158620812
-250.449894;1.01016;0.018544;0.007808;-126;35;-63;1;1158637786
-250.435574;1.014064;0.00976;0.005856;-133;35;-49;1;1158652106
-250.419502;1.009184;-0.001952;0.006832;-147;28;-63;1;1158668178
-250.407924;1.01016;-0.001952;0.005856;-126;21;-70;1;1158679756
-250.390579;1.0150399;-0.000976;0.0;-63;7;-105;1;1158697101
-250.378894;1.012112;-0.00488;0.001952;-56;14;-133;1;1158708786
-250.365028;1.012112;0.00488;-0.001952;-28;14;-147;1;1158722652
-250.349683;1.01016;0.012688;0.002928;7;28;-168;1;1158737997
-250.331845;1.014064;0.017568;0.00488;28;28;-154;1;1158755835
-250.320944;1.0111359;0.025376;0.002928;-49;28;-140;1;1158766736
-250.309858;1.008208;0.026352;0.002928;-63;28;-119;1;1158777822
-250.298620;1.0150399;0.025376;0.002928;-56;35;-91;1;1158789060
-250.285416;1.0111359;0.020496;0.002928;-84;42;-77;1;1158802264
-250.268471;1.012112;0.011712;0.002928;-133;35;-56;1;1158819209
-250.257327;1.0150399;0.006832;0.001952;-154;21;-56;1;1158830353
-250.246111;1.0150399;0.0;0.001952;-140;21;-63;1;1158841569
-250.221139;1.014064;-0.001952;-0.000976;-112;35;-91;1;1158866541
-250.205064;1.0111359;0.000976;-0.000976;-63;42;-119;1;1158882616
-250.175839;1.016016;0.022448;0.000976;-77;49;-133;1;1158911841
-250.148384;1.016992;0.021472;0.0;-91;70;-77;1;1158939296
-250.133846;1.012112;0.020496;0.000976;-161;63;-56;1;1158953834
-250.109697;1.013088;0.008784;0.006832;-175;63;-35;1;1158977983
-250.098619;1.0150399;0.007808;0.006832;-175;56;-35;1;1158989061
-250.086892;1.013088;-0.00488;0.005856;-168;42;-49;1;1159000788
-250.074957;1.012112;-0.007808;0.005856;-168;35;-70;1;1159012723
-250.046625;1.0150399;0.0;0.002928;-91;35;-140;1;1159041055
-250.035762;1.0111359;0.006832;-0.000976;-56;35;-154;1;1159051918
-250.011893;1.0150399;0.017568;-0.001952;-28;42;-140;1;1159075787
-249.983772;1.014064;0.022448;0.001952;-126;70;-91;1;1159103908
-249.972146;1.01016;0.0244;0.006832;-126;70;-70;1;1159115534
-249.961806;1.012112;0.015616;0.007808;-147;56;-56;1;1159125874
-249.947470;1.014064;0.007808;0.00976;-189;42;-56;1;1159140210
-249.933369;1.013088;-0.00488;0.006832;-140;28;-63;1;1159154311
-249.922757;1.009184;-0.008784;0.007808;-112;14;-84;1;1159164923
-249.910322;1.0111359;-0.010736;0.008784;-77;7;-112;1;1159177358
-249.890443;1.013088;0.002928;0.0;-14;-21;-161;1;1159197237
-249.877385;1.0150399;0.005856;-0.001952;35;-14;-168;1;1159210295
-249.866845;1.012112;0.013664;-0.006832;70;7;-168;1;1159220835
-249.853365;1.0179679;0.027328;-0.006832;7;49;-154;1;1159234315
-249.842708;1.014064;0.030256;-0.001952;-7;63;-133;1;1159244972
-249.830214;1.012112;0.02928;0.002928;-42;63;-98;1;1159257466
-249.817060;1.014064;0.027328;0.00976;-77;63;-77;1;1159270620
-249.803026;1.0111359;0.012688;0.013664;-154;35;-49;1;1159284654
-249.791500;1.0111359;0.007808;0.016592;-133;14;-49;1;1159296180
-249.747419;1.012112;-0.006832;-0.001952;-77;-21;-112;1;1159340261
-249.711955;1.016016;0.0244;-0.00976;7;49;-147;1;1159375725
-249.697224;1.01016;0.022448;-0.008784;-35;77;-140;1;1159390456
-249.686652;1.014064;0.026352;-0.002928;-49;98;-112;1;1159401028
-249.675853;1.012112;0.025376;0.003904;-77;91;-91;1;1159411827
-249.649607;1.012112;0.018544;0.011712;-168;56;-42;1;1159438073
-249.636348;1.013088;0.008784;0.00976;-168;42;-28;1;1159451332
-249.612820;1.0150399;-0.006832;0.001952;-147;14;-42;1;1159474860
-249.592084;1.0111359;-0.00488;-0.00488;-112;14;-91;1;1159495596
-249.577665;1.013088;0.0;-0.00976;-49;35;-140;1;1159510015
-249.551698;1.0150399;0.012688;-0.005856;-7;91;-154;1;1159535982
-249.521826;1.0111359;0.026352;0.00976;-56;105;-112;1;1159565854
-249.510812;1.013088;0.026352;0.01464;-126;91;-98;1;1159576868
-249.499509;1.009184;0.01952;0.016592;-224;56;-63;1;1159588171
-249.488145;1.014064;0.01464;0.016592;-224;28;-42;1;1159599535
-249.474586;1.013088;0.007808;0.01464;-182;14;-35;1;1159613094
-249.462955;1.01016;0.001952;0.001952;-175;0;-42;1;1159624725
-249.450383;1.013088;-0.005856;0.001952;-189;-7;-56;1;1159637297
-249.439738;1.014064;-0.006832;-0.008784;-175;7;-84;1;1159647942
-249.428821;1.012112;-0.012688;-0.00976;-133;28;-105;1;1159658859
-249.411411;1.014064;-0.003904;-0.006832;-35;63;-154;1;1159676269
-249.390704;1.0111359;0.01464;-0.000976;0;84;-175;1;1159696976
-249.375939;1.009184;0.026352;0.015616;-14;91;-154;1;1159711741
-249.357352;1.013088;0.02928;0.018544;-77;42;-112;1;1159730328
-249.342337;1.012112;0.027328;0.016592;-77;28;-91;1;1159745343
-249.330697;1.013088;0.027328;0.013664;-91;0;-70;1;1159756983
-249.293294;1.0150399;-0.001952;-0.007808;-133;-14;-42;1;1159794386
-249.282738;1.0150399;-0.007808;-0.00976;-77;7;-56;1;1159804942
-249.263083;1.0150399;-0.003904;-0.008784;-49;49;-119;1;1159824597
-249.251646;1.0111359;0.000976;-0.000976;-35;70;-133;1;1159836034
-249.239054;1.0111359;0.00488;0.00488;-21;84;-140;1;1159848626
-249.227379;1.012112;0.010736;0.010736;0;77;-140;1;1159860301
-249.216696;1.013088;0.017568;0.010736;7;63;-140;1;1159870984
-249.199651;1.013088;0.028304;0.01464;-42;28;-119;1;1159888029
-249.188022;1.014064;0.027328;0.015616;-84;7;-98;1;1159899658
-249.173555;1.0150399;0.0244;0.005856;-133;-28;-49;1;1159914125
-249.162642;1.0111359;0.01464;0.000976;-140;-28;-35;1;1159925038
-249.145045;1.0111359;0.006832;-0.003904;-119;-28;-28;1;1159942635
-249.132700;1.014064;-0.005856;-0.010736;-112;0;-49;1;1159954980
-249.119540;1.014064;-0.007808;-0.011712;-112;28;-70;1;1159968140
-249.108311;1.013088;-0.008784;-0.010736;-112;49;-98;1;1159979369
-249.097349;1.013088;-0.00488;-0.00488;-63;70;-119;1;1159990331
-249.086650;1.0150399;-0.001952;-0.000976;7;91;-140;1;1160001030
-249.074885;1.0150399;0.002928;0.00488;28;91;-154;1;1160012795
-249.049248;1.01016;0.018544;0.017568;-7;42;-147;1;1160038432
-249.036921;1.012112;0.0244;0.018544;-35;7;-133;1;1160050759
-249.006321;1.012112;0.022448;0.0;-112;-21;-77;1;1160081359
-248.978791;1.014064;0.001952;-0.015616;-168;21;-56;1;1160108889
-248.950910;1.016016;-0.007808;-0.001952;-84;98;-112;1;1160136770
-248.939580;1.013088;-0.002928;0.001952;-70;112;-133;1;1160148100
-248.928345;1.0111359;0.003904;0.010736;-63;105;-147;1;1160159335
-248.911377;1.014064;0.013664;0.015616;-21;70;-154;1;1160176303
-248.867333;1.013088;0.026352;0.005856;-77;-14;-105;1;1160220347
-248.845315;1.013088;0.023424;-0.006832;-140;0;-70;1;1160242365
-248.831363;1.0111359;0.017568;-0.007808;-161;14;-49;1;1160256317
-248.810753;1.016016;0.003904;-0.008784;-154;56;-49;1;1160276927
-248.791150;1.012112;0.0;-0.000976;-147;91;-70;1;1160296530
-248.778791;1.013088;0.0;0.012688;-84;105;-98;1;1160308889
-248.766950;1.013088;0.002928;0.016592;-84;91;-119;1;1160320730
-248.751637;1.01016;0.008784;0.018544;-77;70;-133;1;1160336043
-248.740851;1.0111359;0.010736;0.01952;-56;42;-133;1;1160346829
-248.729523;1.012112;0.015616;0.017568;-28;14;-126;1;1160358157
-248.718758;1.012112;0.018544;0.005856;-49;-28;-105;1;1160368922
-248.707746;1.012112;0.01952;-0.000976;-84;-14;-98;1;1160379934
-248.695521;1.0111359;0.020496;-0.008784;-91;-7;-77;1;1160392159
-248.682302;1.016016;0.016592;-0.010736;-84;7;-56;1;1160405378
-248.671201;1.0150399;0.015616;-0.008784;-98;21;-49;1;1160416479
-248.641232;1.01016;-0.003904;0.000976;-119;91;-70;1;1160446448
-248.629721;1.007232;-0.003904;0.003904;-84;98;-77;1;1160457959
-248.609899;1.01016;-0.002928;0.015616;-77;77;-119;1;1160477781
-248.591190;1.0111359;0.00488;0.01464;-42;28;-140;1;1160496490
-248.578995;1.012112;0.013664;0.011712;-28;0;-147;1;1160508685
-248.565749;1.012112;0.017568;0.002928;-49;-21;-140;1;1160521931
-248.551348;1.0179679;0.020496;-0.00488;-56;-21;-119;1;1160536332
-248.518683;1.012112;0.015616;-0.00976;-84;35;-91;1;1160568997
-248.486553;1.013088;0.003904;-0.001952;-126;77;-91;1;1160601127
-248.472859;1.013088;0.003904;0.008784;-105;84;-105;1;1160614821
-248.460333;1.012112;0.000976;0.011712;-77;84;-119;1;1160627347
-248.448518;1.013088;0.00488;0.012688;-63;70;-119;1;1160639162
-248.412156;1.012112;0.011712;0.010736;-49;28;-133;1;1160675524
-248.376966;1.013088;0.020496;-0.006832;-70;21;-105;1;1160710714
-248.351701;1.012112;0.017568;-0.007808;-140;77;-63;1;1160735979
-248.338246;1.013088;0.011712;-0.003904;-161;91;-63;1;1160749434
-248.310896;1.013088;0.006832;0.010736;-175;91;-77;1;1160776784
-248.288409;1.01016;0.005856;0.015616;-133;56;-77;1;1160799271
-248.275877;1.013088;0.005856;0.012688;-119;42;-98;1;1160811803
-248.264191;1.0111359;0.00488;0.011712;-112;21;-105;1;1160823489
-248.249931;1.0111359;0.008784;0.003904;-70;0;-105;1;1160837749
-248.219335;1.012112;0.013664;-0.006832;-98;28;-105;1;1160868345
-248.201359;1.0150399;0.013664;-0.003904;-84;70;-91;1;1160886321
-248.189687;1.012112;0.012688;-0.001952;-105;77;-84;1;1160897993
-248.175298;1.014064;0.00976;0.002928;-126;77;-84;1;1160912382
-248.164637;1.012112;0.006832;0.003904;-147;77;-77;1;1160923043
-248.145274;1.0111359;0.007808;0.011712;-119;70;-84;1;1160942406
-248.134873;1.0111359;0.00488;0.015616;-91;56;-91;1;1160952807
-248.123210;1.0111359;0.002928;0.01464;-84;35;-98;1;1160964470
-248.112733;1.014064;0.003904;0.011712;-84;21;-105;1;1160974947
-248.096961;1.014064;0.005856;0.006832;-70;0;-126;1;1160990719
-248.084181;1.014064;0.005856;0.000976;-49;7;-133;1;1161003499
-248.071937;1.014064;0.00976;-0.003904;-28;7;-133;1;1161015743
-248.060595;1.013088;0.011712;-0.002928;-49;14;-133;1;1161027085
-248.046060;1.014064;0.018544;-0.001952;-49;42;-119;1;1161041620
-248.022876;1.012112;0.015616;0.002928;-84;63;-105;1;1161064804
-248.002773;1.0111359;0.01464;0.00488;-105;56;-98;1;1161084907
-247.990172;1.013088;0.012688;0.010736;-112;49;-91;1;1161097508
-247.946271;1.012112;0.007808;0.002928;-63;-7;-105;1;1161141409
-247.932845;1.014064;0.008784;0.0;-49;-7;-112;1;1161154835
-247.920688;1.012112;0.00976;-0.003904;-49;0;-112;1;1161166992
-247.909632;1.012112;0.013664;-0.006832;-56;14;-112;1;1161178048
-247.898826;1.016016;0.013664;-0.002928;-49;28;-105;1;1161188854
-247.882929;1.0150399;0.017568;-0.001952;-56;49;-98;1;1161204751
-247.871485;1.013088;0.01952;0.000976;-63;49;-98;1;1161216195
-247.849520;1.012112;0.015616;0.005856;-77;42;-70;1;1161238160
-247.835282;1.012112;0.011712;0.008784;-77;42;-63;1;1161252398
-247.812756;1.0111359;0.002928;0.010736;-77;14;-63;1;1161274924
-247.780274;1.012112;0.003904;-0.003904;-63;0;-91;1;1161307406
-247.769922;1.014064;0.007808;-0.00488;-42;21;-98;1;1161317758
-247.755420;1.0111359;0.006832;-0.00488;-42;35;-105;1;1161332260
-247.740075;1.0150399;0.01464;-0.00488;-63;56;-112;1;1161347605
-247.728800;1.0150399;0.011712;0.0;-70;63;-98;1;1161358880
-247.712835;1.0111359;0.01464;0.001952;-112;56;-91;1;1161374845
-247.692714;1.013088;0.016592;0.00488;-147;49;-70;1;1161394966
-247.681163;1.013088;0.012688;0.010736;-175;49;-63;1;1161406517
-247.670662;1.013088;0.007808;0.006832;-189;42;-70;1;1161417018
-247.654663;1.012112;0.003904;0.003904;-182;28;-70;1;1161433017
-247.643791;1.009184;0.002928;0.001952;-147;21;-70;1;1161443889
-247.630884;1.013088;0.002928;-0.005856;-147;28;-98;1;1161456796
-247.612392;1.014064;0.00488;-0.000976;-126;56;-119;1;1161475288
-247.593192;1.013088;0.008784;0.001952;-84;56;-119;1;1161494488
-247.580942;1.0111359;0.010736;0.002928;-84;49;-140;1;1161506738
-247.569648;1.0111359;0.013664;0.003904;-70;49;-133;1;1161518032
-247.556051;1.0179679;0.016592;0.003904;-49;49;-119;1;1161531629
-247.539610;1.012112;0.017568;0.008784;-105;56;-98;1;1161548070
-247.507610;1.0111359;0.011712;0.002928;-84;21;-70;1;1161580070
-247.481538;1.01016;0.003904;0.0;-119;42;-70;1;1161606142
-247.464279;1.013088;0.0;0.001952;-56;42;-84;1;1161623401
-247.452738;1.012112;0.0;0.002928;-63;49;-105;1;1161634942
-247.441896;1.01016;0.0;0.002928;-56;56;-126;1;1161645784
-247.430742;1.014064;0.011712;0.005856;-42;49;-126;1;1161656938
-247.419447;1.014064;0.015616;0.010736;-63;49;-119;1;1161668233
-247.402844;1.0111359;0.018544;0.008784;-70;28;-112;1;1161684836
-247.391803;1.0150399;0.018544;0.008784;-91;28;-105;1;1161695877
-247.380669;1.013088;0.020496;0.007808;-84;14;-91;1;1161707011
-247.369777;1.012112;0.015616;0.002928;-126;7;-56;1;1161717903
-247.347569;1.01016;0.005856;-0.000976;-119;21;-42;1;1161740111
-247.332943;1.014064;-0.001952;-0.000976;-112;21;-49;1;1161754737
-247.320745;1.012112;-0.003904;-0.00488;-91;35;-63;1;1161766935
-247.300238;1.0111359;-0.003904;0.002928;-63;35;-98;1;1161787442
-247.286961;1.012112;0.000976;0.007808;0;28;-133;1;1161800719
-247.266165;1.0150399;0.011712;0.007808;0;35;-161;1;1161821515
-247.255801;1.012112;0.018544;0.007808;35;14;-147;1;1161831879
-247.244531;1.0111359;0.017568;0.008784;21;7;-140;1;1161843149
-247.220857;1.012112;0.020496;0.0;-42;0;-112;1;1161866823
-247.209848;1.013088;0.022448;-0.000976;-77;-7;-98;1;1161877832
-247.197856;1.016016;0.018544;-0.002928;-77;21;-84;1;1161889824
-247.183456;1.014064;0.005856;-0.001952;-112;21;-77;1;1161904224
-247.171263;1.016992;0.003904;0.0;-140;42;-77;1;1161916417
-247.160633;1.013088;0.001952;-0.001952;-119;42;-84;1;1161927047
-247.149547;1.012112;-0.003904;-0.002928;-84;35;-98;1;1161938133
-247.133330;1.012112;-0.000976;-0.001952;-91;70;-140;1;1161954350
-247.122793;1.013088;0.00488;0.003904;-98;63;-154;1;1161964887
-247.104275;1.014064;0.018544;0.007808;-35;56;-154;1;1161983405
-247.074417;1.0111359;0.0244;0.001952;-98;28;-119;1;1162013263
-247.056690;1.014064;0.021472;0.003904;-112;14;-98;1;1162030990
-247.035606;1.014064;0.017568;-0.000976;-154;35;-70;1;1162052074
-247.012761;1.012112;0.008784;-0.003904;-154;63;-49;1;1162074919
-246.999505;1.012112;0.003904;0.0;-154;63;-49;1;1162088175
-246.988780;1.013088;-0.000976;0.003904;-133;70;-63;1;1162098900
-246.977638;1.012112;0.000976;0.00488;-98;70;-77;1;1162110042
-246.966797;1.0111359;0.002928;0.00976;-77;63;-91;1;1162120883
-246.954099;1.0111359;0.00488;0.010736;-70;56;-112;1;1162133581
-246.942344;1.0111359;0.016592;0.012688;-56;28;-119;1;1162145336
-246.930399;1.009184;0.017568;0.013664;-56;14;-112;1;1162157281
-246.919618;1.0111359;0.015616;0.006832;-42;14;-98;1;1162168062
-246.906639;1.013088;0.017568;0.005856;-63;7;-84;1;1162181041
-246.895848;1.014064;0.01952;0.0;-63;7;-77;1;1162191832
-246.881696;1.013088;0.013664;-0.001952;-105;21;-63;1;1162205984
-246.870878;1.012112;0.012688;0.0;-105;28;-49;1;1162216802
-246.848765;1.012112;0.002928;0.0;-126;49;-49;1;1162238915
-246.837979;1.009184;-0.000976;0.001952;-84;49;-56;1;1162249701
-246.821272;1.012112;-0.003904;0.011712;-91;42;-91;1;1162266408
-246.810335;1.012112;-0.001952;0.012688;-77;28;-112;1;1162277345
-246.796816;1.008208;-0.001952;0.011712;-42;21;-119;1;1162290864
-246.782114;1.01016;0.001952;0.011712;-35;14;-133;1;1162305566
-246.771085;1.0111359;0.018544;0.00488;-28;-7;-140;1;1162316595
-246.748654;1.016016;0.023424;-0.002928;-35;-14;-112;1;1162339026
-246.737080;1.014064;0.01952;-0.00976;-63;-7;-98;1;1162350600
-246.721056;1.0111359;0.021472;-0.012688;-98;21;-84;1;1162366624
-246.705178;1.013088;0.00976;-0.005856;-84;63;-56;1;1162382502
-246.689033;1.01016;0.000976;0.00488;-161;77;-63;1;1162398647
-246.678162;1.013088;0.000976;0.00976;-161;63;-77;1;1162409518
-246.633205;1.012112;0.006832;0.011712;-77;7;-133;1;1162454475
-246.618472;1.014064;0.01464;0.001952;-105;-14;-126;1;1162469208
-246.607449;1.012112;0.020496;-0.003904;-126;0;-133;1;1162480231
-246.588249;1.012112;0.021472;-0.007808;-63;14;-91;1;1162499431
-246.575663;1.0150399;0.017568;-0.00976;-28;21;-70;1;1162512017
-246.564413;1.016992;0.015616;-0.00976;-126;42;-70;1;1162523267
-246.549748;1.0150399;0.011712;-0.00488;-161;56;-70;1;1162537932
-246.538010;1.012112;0.0;0.005856;-63;77;-49;1;1162549670
-246.510524;1.012112;0.001952;0.011712;-84;63;-98;1;1162577156
-246.499764;1.0111359;0.003904;0.007808;-28;49;-91;1;1162587916
-246.486698;1.0150399;0.00488;0.010736;-84;28;-112;1;1162600982
-246.475787;1.012112;0.011712;0.008784;-98;7;-119;1;1162611893
-246.452742;1.012112;0.018544;0.001952;-42;0;-112;1;1162634938
-246.439671;1.0111359;0.016592;-0.003904;-70;0;-98;1;1162648009
-246.422475;1.016016;0.011712;0.0;-105;35;-56;1;1162665205
-246.411760;1.012112;0.007808;0.000976;-126;21;-56;1;1162675920
-246.400736;1.0150399;0.006832;-0.000976;-119;21;-70;1;1162686944
-246.387183;1.013088;0.002928;-0.005856;-63;35;-77;1;1162700497
-246.374664;1.01016;0.005856;0.000976;-84;70;-84;1;1162713016
-246.363283;1.01016;0.001952;0.001952;-98;77;-91;1;1162724397
-246.346099;1.0150399;-0.001952;0.007808;-70;63;-98;1;1162741581
-246.332792;1.009184;0.0;0.00976;-21;21;-133;1;1162754888
-246.321268;1.0111359;0.005856;0.003904;-14;14;-147;1;1162766412
-246.308938;1.013088;0.012688;0.003904;-49;14;-147;1;1162778742
-246.295900;1.012112;0.013664;0.003904;-56;28;-147;1;1162791780
-246.283230;1.013088;0.01952;-0.000976;-35;14;-126;1;1162804450
-246.271628;1.012112;0.021472;-0.006832;-14;21;-112;1;1162816052
-246.260859;1.012112;0.01952;-0.006832;-49;28;-98;1;1162826821
-246.244889;1.012112;0.017568;-0.007808;-119;42;-84;1;1162842791
-246.222847;1.014064;0.001952;0.00488;-119;77;-77;1;1162864833
-246.185145;1.016016;0.006832;0.003904;-119;63;-105;1;1162902535
-246.166734;1.009184;0.003904;0.00488;-112;49;-119;1;1162920946
-246.155856;1.012112;0.006832;0.005856;-126;35;-133;1;1162931824
-246.144240;1.013088;0.010736;0.007808;-112;35;-147;1;1162943440
-246.133669;1.0111359;0.013664;0.010736;-56;42;-133;1;1162954011
-246.116581;1.013088;0.016592;0.006832;-154;28;-119;1;1162971099
-246.105623;1.013088;0.01952;0.000976;-147;14;-98;1;1162982057
-246.082390;1.016992;0.016592;-0.006832;-119;28;-70;1;1163005290
-246.064039;1.012112;0.010736;-0.002928;-119;70;-49;1;1163023641
-246.051777;1.012112;0.003904;0.00488;-126;91;-56;1;1163035903
-246.040889;1.0150399;-0.003904;0.01464;-105;49;-77;1;1163046791
-246.022805;1.012112;-0.001952;0.010736;-7;49;-84;1;1163064875
-246.011691;1.0150399;0.000976;0.008784;0;42;-98;1;1163075989
-245.992838;1.01016;0.008784;0.011712;-21;35;-133;1;1163094842
-245.981545;1.014064;0.00976;0.011712;-7;0;-119;1;1163106135
-245.970660;1.014064;0.010736;0.00488;-21;-28;-126;1;1163117020
-245.942782;1.0179679;0.020496;-0.003904;-7;-7;-98;1;1163144898
-245.931584;1.016016;0.017568;-0.003904;-28;14;-70;1;1163156096
-245.919892;1.0111359;0.01464;-0.005856;-105;14;-70;1;1163167788
-245.906756;1.013088;0.003904;-0.00488;-63;42;-63;1;1163180924
-245.878123;1.01016;-0.000976;0.005856;-105;63;-112;1;1163209557
-245.866940;1.013088;0.000976;0.008784;-63;56;-105;1;1163220740
-245.854654;1.0150399;-0.000976;0.006832;-56;28;-112;1;1163233026
-245.821671;1.014064;0.012688;0.00488;-56;7;-154;1;1163266009
-245.810953;1.0111359;0.01464;0.002928;-42;0;-147;1;1163276727
-245.775729;1.014064;0.017568;-0.00976;-70;56;-91;1;1163311951
-245.740444;1.012112;0.008784;-0.000976;-112;84;-77;1;1163347236
-245.729472;1.0111359;0.007808;0.0;-98;84;-77;1;1163358208
-245.712685;1.0111359;0.002928;0.005856;-119;91;-105;1;1163374995
-245.701767;1.0111359;0.005856;0.00976;-105;91;-112;1;1163385913
-245.690416;1.013088;0.005856;0.010736;-105;70;-112;1;1163397264
-245.679765;1.012112;0.008784;0.006832;-112;56;-119;1;1163407915
-245.668960;1.0111359;0.010736;0.001952;-91;35;-112;1;1163418720
-245.655280;1.012112;0.017568;-0.000976;-161;56;-112;1;1163432400
-245.642609;1.012112;0.016592;0.001952;-133;63;-91;1;1163445071
-245.631888;1.013088;0.017568;0.002928;-133;63;-91;1;1163455792
-245.612866;1.0150399;0.011712;0.000976;-189;49;-70;1;1163474814
-245.601634;1.013088;0.010736;0.0;-175;56;-63;1;1163486046
-245.590670;1.014064;0.00976;0.0;-140;70;-56;1;1163497010
-245.578140;1.0111359;0.008784;0.001952;-147;84;-63;1;1163509540
-245.567842;1.014064;0.006832;0.00488;-189;91;-77;1;1163519838
-245.552576;1.0150399;0.007808;0.00976;-98;70;-77;1;1163535104
-245.537986;1.013088;0.003904;0.011712;-105;56;-91;1;1163549694
-245.526750;1.01016;0.002928;0.01464;-133;49;-105;1;1163560930
-245.511416;1.01016;0.011712;0.011712;-70;28;-112;1;1163576264
-245.500273;1.01016;0.00976;0.010736;-63;7;-98;1;1163587407
-245.488778;1.014064;0.011712;0.008784;-91;0;-105;1;1163598902
-245.476285;1.0111359;0.015616;0.001952;-77;0;-112;1;1163611395
-245.458927;1.0111359;0.011712;-0.002928;-35;14;-98;1;1163628753
-245.447800;1.014064;0.00976;-0.005856;-56;28;-98;1;1163639880
-245.434487;1.0150399;0.011712;-0.005856;-84;35;-98;1;1163653193
-245.412847;1.013088;0.00488;0.000976;-35;63;-77;1;1163674833
-245.401577;1.012112;0.002928;0.007808;-49;63;-112;1;1163686103
-245.377938;1.01016;0.008784;0.015616;-21;21;-119;1;1163709742
-245.351057;1.014064;0.010736;0.007808;-56;-28;-133;1;1163736623
-245.290045;1.012112;0.013664;-0.006832;-70;70;-91;1;1163797635
-245.275379;1.013088;0.00976;0.0;-112;84;-105;1;1163812301
-245.258250;1.012112;0.011712;0.005856;-63;70;-91;1;1163829430
-245.242968;1.0111359;0.003904;0.007808;-84;56;-98;1;1163844712
-245.214552;1.01016;0.00488;0.013664;-91;28;-119;1;1163873128
-245.201221;1.013088;0.008784;0.013664;-56;14;-119;1;1163886459
-245.185349;1.0150399;0.01464;-0.001952;-105;-28;-119;1;1163902331
-245.173789;1.013088;0.011712;-0.007808;-84;-7;-112;1;1163913891
-245.161663;1.013088;0.016592;-0.00976;-70;21;-98;1;1163926017
-245.150669;1.014064;0.013664;-0.012688;-105;49;-98;1;1163937011
-245.135426;1.012112;0.015616;-0.00488;-91;84;-77;1;1163952254
-245.110676;1.012112;0.013664;0.003904;-126;84;-63;1;1163977004
-245.092088;1.01016;0.00488;0.008784;-126;84;-63;1;1163995592
-245.077705;1.009184;0.0;0.016592;-98;56;-91;1;1164009975
-245.066002;1.013088;0.001952;0.016592;-112;35;-105;1;1164021678
-245.050259;1.0111359;0.005856;0.012688;-91;14;-105;1;1164037421
-245.019848;1.012112;0.010736;-0.005856;-91;0;-126;1;1164067832
-245.001345;1.0111359;0.01464;-0.010736;-56;35;-112;1;1164086335
-244.989843;1.0150399;0.016592;-0.008784;-91;63;-105;1;1164097837
-244.976065;1.0111359;0.017568;0.001952;-119;77;-98;1;1164111615
-244.949790;1.012112;0.010736;0.00976;-77;77;-77;1;1164137890
-244.938814;1.0150399;0.006832;0.01464;-112;63;-84;1;1164148866
-244.919670;1.012112;0.001952;0.015616;-84;42;-84;1;1164168010
-244.900186;1.013088;0.005856;0.00976;-63;-14;-126;1;1164187494
-244.888641;1.0111359;0.007808;0.002928;-49;-35;-133;1;1164199039
-244.855698;1.012112;0.007808;-0.00976;-14;14;-126;1;1164231982
-244.838609;1.0150399;0.016592;-0.005856;-21;49;-133;1;1164249071
-244.822976;1.012112;0.016592;-0.000976;-35;63;-112;1;1164264704
-244.802820;1.013088;0.017568;0.008784;-77;70;-91;1;1164284860
-244.791233;1.0111359;0.01464;0.011712;-112;63;-77;1;1164296447
-244.780807;1.0111359;0.011712;0.011712;-98;42;-77;1;1164306873
-244.762235;1.013088;0.006832;0.007808;-112;7;-84;1;1164325445
-244.742311;1.0111359;0.005856;-0.001952;-112;7;-98;1;1164345369
-244.731656;1.012112;0.005856;-0.002928;-98;0;-98;1;1164356024
-244.719694;1.013088;0.005856;-0.001952;-84;14;-105;1;1164367986
-244.703119;1.012112;0.005856;-0.003904;-63;28;-112;1;1164384561
-244.682335;1.012112;0.011712;-0.002928;-91;49;-119;1;1164405345
-244.670947;1.012112;0.0244;-0.000976;-77;77;-105;1;1164416733
-244.647328;1.014064;0.022448;0.00488;-105;91;-77;1;1164440352
-244.635250;1.0150399;0.017568;0.003904;-112;77;-56;1;1164452430
-244.611379;1.012112;0.006832;0.008784;-175;63;-49;1;1164476301
-244.591083;1.009184;-0.003904;0.011712;-140;35;-70;1;1164496597
-244.578052;1.012112;-0.002928;0.007808;-98;7;-105;1;1164509628
-244.566413;1.012112;-0.002928;0.000976;-91;14;-119;1;1164521267
-244.551544;1.012112;0.001952;-0.000976;-98;28;-133;1;1164536136
-244.540168;1.0150399;0.003904;-0.00488;-77;21;-140;1;1164547512
-244.527462;1.012112;0.016592;-0.008784;-21;49;-147;1;1164560218
-244.516511;1.014064;0.021472;-0.007808;-49;70;-140;1;1164571169
-244.503943;1.0150399;0.0244;-0.003904;-56;91;-119;1;1164583737
-244.480372;1.012112;0.023424;0.008784;-133;105;-70;1;1164607308
-244.467344;1.009184;0.007808;0.016592;-238;63;-70;1;1164620336
-244.427917;1.012112;-0.002928;0.00976;-119;-21;-126;1;1164659763
-244.414142;1.0111359;-0.000976;0.005856;-119;-35;-140;1;1164673538
-244.395715;1.0150399;0.003904;-0.003904;63;-21;-133;1;1164691965
-244.384573;1.016016;0.010736;-0.011712;56;-7;-161;1;1164703107
-244.372650;1.013088;0.017568;-0.012688;21;14;-168;1;1164715030
-244.359404;1.0150399;0.026352;-0.012688;0;42;-154;1;1164728276
-244.346018;1.014064;0.028304;-0.00488;-21;91;-84;1;1164741662
-244.322792;1.01016;0.017568;0.013664;-133;91;-49;1;1164764888
-244.310392;1.012112;0.01464;0.017568;-133;70;-42;1;1164777288
-244.292810;1.013088;0.001952;0.018544;-98;14;-35;1;1164794870
-244.279188;1.012112;-0.003904;0.012688;-119;0;-56;1;1164808492
-244.262736;1.013088;-0.007808;0.002928;-98;-28;-98;1;1164824944
-244.247354;1.013088;-0.00488;-0.00488;-56;-28;-112;1;1164840326
-244.227437;1.013088;0.00976;-0.015616;-14;-7;-147;1;1164860243
-244.212817;1.0150399;0.0244;-0.015616;-28;63;-147;1;1164874863
-244.201199;1.014064;0.027328;-0.007808;-42;98;-126;1;1164886481
-244.190945;1.016992;0.027328;0.002928;-77;119;-98;1;1164896735
-244.177387;1.009184;0.022448;0.012688;-105;112;-63;1;1164910293
-244.166908;1.013088;0.022448;0.01464;-140;98;-42;1;1164920772
-244.150325;1.007232;0.008784;0.013664;-175;56;-21;1;1164937355
-244.139811;1.009184;0.000976;0.012688;-182;42;-28;1;1164947869
-244.128543;1.0111359;-0.000976;0.008784;-168;28;-42;1;1164959137
-244.116344;1.01016;-0.00488;0.007808;-175;7;-56;1;1164971336
-244.099652;1.014064;-0.00976;-0.001952;-98;-21;-98;1;1164988028
-244.086844;1.012112;-0.012688;-0.006832;-56;-14;-133;1;1165000836
-244.075529;1.01016;-0.003904;-0.012688;-35;0;-161;1;1165012151
-244.064389;1.0111359;0.006832;-0.010736;-14;35;-175;1;1165023291
-244.051714;1.0111359;0.025376;-0.000976;7;77;-161;1;1165035966
-244.036613;1.0111359;0.027328;0.0;-7;84;-140;1;1165051067
-244.012777;1.01016;0.030256;0.010736;-119;70;-84;1;1165074903
-243.975905;1.013088;0.0;0.00976;-203;21;-28;1;1165111775
-243.957356;1.014064;-0.005856;0.007808;-189;0;-70;1;1165130324
-243.943128;1.01016;-0.006832;0.005856;-140;0;-91;1;1165144552
-243.932821;1.012112;-0.007808;0.0;-84;-7;-112;1;1165154859
-243.912848;1.012112;0.001952;-0.008784;-14;7;-161;1;1165174832
-243.892713;1.014064;0.018544;-0.007808;14;49;-175;1;1165194967
-243.881310;1.0150399;0.0244;-0.000976;14;77;-161;1;1165206370
-243.870469;1.01016;0.032208;0.00976;-35;63;-119;1;1165217211
-243.857763;1.012112;0.036112;0.012688;-77;49;-84;1;1165229917
-243.845704;1.01016;0.028304;0.00976;-105;35;-56;1;1165241976
-243.833890;1.016016;0.021472;0.011712;-140;14;-28;1;1165253790
-243.822073;1.0111359;0.010736;0.008784;-182;7;-21;1;1165265607
-243.802782;1.01016;-0.000976;0.001952;-154;0;-28;1;1165284898
-243.783647;1.01016;-0.013664;-0.003904;-77;7;-77;1;1165304033
-243.772233;1.012112;-0.013664;-0.005856;-28;14;-105;1;1165315447
-243.749777;1.0111359;0.000976;-0.005856;-28;42;-161;1;1165337903
-243.735783;1.012112;0.01464;-0.007808;21;91;-168;1;1165351897
-243.712852;1.014064;0.031232;0.011712;-7;98;-140;1;1165374828
-243.680506;1.0111359;0.027328;0.017568;-140;14;-42;1;1165407174
-243.669918;1.01016;0.016592;0.00976;-168;-7;-14;1;1165417762
-243.655495;1.009184;-0.00488;-0.000976;-182;-7;-28;1;1165432185
-243.643521;1.0111359;-0.008784;-0.00488;-140;7;-49;1;1165444159
-243.631105;1.012112;-0.011712;-0.005856;-126;21;-84;1;1165456575
-243.611306;1.0111359;-0.00488;-0.010736;-63;42;-133;1;1165476374
-243.580138;1.01016;0.015616;0.0;-28;119;-182;1;1165507542
-243.569694;1.0111359;0.022448;0.013664;-56;119;-182;1;1165517986
-243.556195;1.012112;0.030256;0.022448;-91;56;-133;1;1165531485
-243.522673;1.01016;0.022448;0.006832;-189;7;-42;1;1165565007
-243.508999;1.0150399;0.015616;0.00488;-161;0;-28;1;1165578681
-243.493785;1.01016;-0.000976;-0.003904;-189;-21;-35;1;1165593895
-243.479730;1.012112;-0.00488;-0.012688;-196;0;-56;1;1165607950
-243.468786;1.016016;-0.005856;-0.013664;-168;42;-77;1;1165618894
-243.446683;1.0150399;-0.00488;0.0;-49;98;-112;1;1165640997
-243.432982;1.012112;0.006832;0.007808;-21;77;-154;1;1165654698
-243.421500;1.01016;0.015616;0.00976;-35;70;-154;1;1165666180
-243.402410;1.0111359;0.026352;0.01952;-21;63;-133;1;1165685270
-243.390164;1.014064;0.028304;0.020496;-56;42;-112;1;1165697516
-243.375959;1.01016;0.028304;0.015616;-77;21;-91;1;1165711721
-243.362611;1.012112;0.015616;0.003904;-119;-28;-42;1;1165725069
-243.351921;1.0179679;0.00976;-0.003904;-112;-21;-28;1;1165735759
-243.335074;1.013088;0.005856;-0.006832;-126;0;-28;1;1165752606
-243.311963;1.013088;0.0;-0.01464;-91;28;-77;1;1165775717
-243.300597;1.0150399;0.0;-0.013664;-70;56;-77;1;1165787083
-243.289764;1.013088;0.001952;-0.006832;-56;84;-84;1;1165797916
-243.271982;1.013088;0.006832;0.010736;-105;105;-126;1;1165815698
-243.258826;1.012112;0.00976;0.017568;-77;77;-133;1;1165828854
-243.247784;1.014064;0.016592;0.018544;-7;49;-119;1;1165839896
-243.234225;1.01016;0.022448;0.017568;-42;35;-105;1;1165853455
-243.222009;1.0111359;0.017568;0.017568;-105;21;-98;1;1165865671
-243.209655;1.014064;0.010736;0.010736;-112;-7;-70;1;1165878025
-243.197586;1.0150399;0.00488;0.003904;-98;-35;-63;1;1165890094
-243.184161;1.0111359;0.005856;-0.006832;-84;-42;-70;1;1165903519
-243.173735;1.012112;-0.001952;-0.008784;-98;-28;-84;1;1165913945
-243.148564;1.0111359;0.001952;-0.006832;-63;70;-126;1;1165939116
-243.131609;1.012112;0.00488;0.0;-49;84;-140;1;1165956071
-243.120876;1.013088;0.007808;0.006832;7;77;-133;1;1165966804
-243.085515;1.01016;0.022448;0.015616;-56;42;-119;1;1166002165
-243.074352;1.01016;0.021472;0.012688;-91;21;-112;1;1166013328
-243.060380;1.013088;0.018544;0.010736;-105;14;-98;1;1166027300
-243.049289;1.014064;0.012688;0.00488;-126;0;-91;1;1166038391
-243.038861;1.013088;0.001952;-0.003904;-126;7;-77;1;1166048819
-243.027888;1.014064;0.001952;-0.007808;-154;21;-98;1;1166059792
-243.015663;1.013088;0.001952;-0.007808;-168;35;-119;1;1166072017
-242.991299;1.014064;0.00976;-0.003904;-98;77;-119;1;1166096381
-242.977753;1.013088;0.012688;0.006832;-91;91;-119;1;1166109927
-242.964223;1.009184;0.015616;0.00976;-98;84;-119;1;1166123457
-242.952320;1.012112;0.018544;0.006832;-70;63;-105;1;1166135360
-242.940308;1.013088;0.015616;0.006832;-63;63;-91;1;1166147372
-242.914519;1.016016;0.016592;0.006832;-126;63;-70;1;1166173161
-242.892807;1.013088;0.007808;0.006832;-168;28;-63;1;1166194873
-242.881245;1.014064;0.006832;0.002928;-161;35;-63;1;1166206435
-242.869807;1.012112;0.003904;-0.000976;-126;42;-63;1;1166217873
-242.845604;1.014064;0.001952;0.0;-98;56;-105;1;1166242076
-242.833937;1.01016;0.007808;-0.000976;-63;56;-112;1;1166253743
-242.820876;1.013088;0.007808;-0.000976;-42;56;-112;1;1166266804
-242.802773;1.014064;0.010736;0.002928;-84;77;-119;1;1166284907
-242.783544;1.012112;0.013664;0.010736;-70;63;-105;1;1166304136
-242.771556;1.012112;0.01464;0.011712;-70;56;-98;1;1166316124
-242.755333;1.014064;0.016592;0.010736;-105;42;-91;1;1166332347
-242.732757;1.014064;0.006832;0.006832;-140;21;-70;1;1166354923
-242.712806;1.0111359;0.000976;0.000976;-91;0;-84;1;1166374874
-242.701220;1.01016;0.0;0.0;-91;7;-98;1;1166386460
-242.682760;1.012112;0.000976;0.000976;-98;42;-126;1;1166404920
-242.668703;1.0111359;0.00488;0.001952;-42;56;-133;1;1166418977
-242.655740;1.013088;0.005856;0.003904;-35;49;-140;1;1166431940
-242.621542;1.0111359;0.013664;0.003904;-35;28;-140;1;1166466138
-242.610568;1.012112;0.016592;0.006832;-56;21;-133;1;1166477112
-242.592512;1.014064;0.016592;0.00488;-35;7;-105;1;1166495168
-242.577324;1.016016;0.013664;0.00488;-42;-7;-98;1;1166510356
-242.557794;1.013088;0.006832;-0.000976;-63;14;-91;1;1166529886
-242.531809;1.01016;0.008;;1.813;0.098;0.244999984;1;1166555871
-242.520457;1.0111359;0.00976;-0.001952;-42;35;-119;1;1166567223
-242.486771;1.016992;0.013664;0.002928;-35;56;-119;1;1166600909
-242.472174;1.0111359;0.018544;0.003904;-63;56;-112;1;1166615506
-242.461638;1.0111359;0.016592;0.00488;-77;49;-105;1;1166626042
-242.446879;1.016016;0.017568;0.0;-105;35;-84;1;1166640801
-242.422850;1.013088;0.012688;0.002928;-161;42;-63;1;1166664830
-242.411868;1.012112;0.015616;-0.000976;-154;42;-56;1;1166675812
-242.400435;1.012112;0.011712;0.000976;-140;42;-56;1;1166687245
-242.388052;1.0111359;0.005856;0.0;-133;49;-56;1;1166699628
-242.376681;1.014064;0.00488;-0.001952;-140;56;-70;1;1166710999
-242.363807;1.014064;0.000976;0.0;-133;70;-84;1;1166723873
-242.341594;1.01016;0.005856;0.002928;-105;63;-98;1;1166746086
-242.322852;1.012112;0.00976;0.006832;-77;56;-105;1;1166764828
-242.311573;1.0111359;0.013664;0.010736;-98;49;-105;1;1166776107
-242.292365;1.012112;0.015616;0.00976;-84;35;-91;1;1166795315
-242.280158;1.01016;0.017568;0.007808;-91;28;-84;1;1166807522
-242.249643;1.014064;0.00976;-0.000976;-112;42;-63;1;1166838037
-242.221886;1.0150399;-0.001952;0.001952;-119;63;-84;1;1166865794
-242.208705;1.0111359;-0.001952;0.005856;-105;63;-98;1;1166878975
-242.174156;1.01016;0.005856;0.016592;-49;21;-140;1;1166913524
-242.162145;1.009184;0.012688;0.011712;-49;7;-147;1;1166925535
-242.144348;1.014064;0.017568;0.001952;-49;-14;-133;1;1166943332
-242.131749;1.014064;0.015616;-0.000976;-28;-7;-112;1;1166955931
-242.118824;1.014064;0.017568;-0.00488;-56;7;-105;1;1166968856
-242.101804;1.0111359;0.016592;-0.00488;-91;28;-84;1;1166985876
-242.079657;1.013088;0.008784;-0.003904;-77;56;-70;1;1167008023
-242.068764;1.013088;0.006832;0.002928;-84;70;-70;1;1167018916
-242.053010;1.0111359;0.005856;0.013664;-63;63;-77;1;1167034670
-242.041744;1.014064;0.005856;0.01952;-70;49;-91;1;1167045936
-242.030460;1.012112;0.000976;0.016592;-49;35;-98;1;1167057220
-242.019317;1.01016;0.00488;0.01464;-42;7;-105;1;1167068363
-242.002734;1.008208;0.012688;0.00976;-35;-35;-112;1;1167084946
-241.985157;1.01016;0.013664;0.002928;-35;-42;-112;1;1167102523
-241.974767;1.0150399;0.017568;-0.00488;-56;-49;-105;1;1167112913
-241.962939;1.013088;0.01464;-0.018544;-28;7;-84;1;1167124741
-241.951743;1.014064;0.016592;-0.011712;-21;42;-70;1;1167135937
-241.939752;1.014064;0.01952;-0.010736;-70;49;-63;1;1167147928
-241.920404;1.01016;0.012688;-0.00488;-154;91;-49;1;1167167276
-241.900711;1.012112;-0.000976;0.00976;-147;105;-49;1;1167186969
-241.884501;1.0111359;0.003904;0.017568;-126;98;-56;1;1167203179
-241.873819;1.009184;0.0;0.0244;-154;63;-84;1;1167213861
-241.850703;1.012112;0.008784;0.010736;-84;-42;-84;1;1167236977
-241.838817;1.012112;0.00488;0.000976;-91;-35;-91;1;1167248863
-241.821049;1.013088;0.007808;-0.012688;-56;-7;-105;1;1167266631
-241.809902;1.0179679;0.010736;-0.016592;-21;21;-98;1;1167277778
-241.792776;1.0150399;0.016592;-0.017568;-21;49;-91;1;1167294904
-241.757921;1.0111359;0.002928;0.011712;-112;126;-70;1;1167329759
-241.742428;1.014064;-0.001952;0.020496;-105;105;-77;1;1167345252
-241.722564;1.01016;-0.000976;0.0244;-98;49;-105;1;1167365116
-241.702589;1.014064;0.007808;0.012688;-112;7;-133;1;1167385091
-241.678464;1.016016;0.015616;-0.006832;-63;-42;-147;1;1167409216
-241.651655;1.0111359;0.015616;-0.016592;-112;14;-119;1;1167436025
-241.640692;1.0150399;0.016592;-0.017568;-91;63;-112;1;1167446988
-241.622826;1.014064;0.013664;-0.008784;-91;112;-98;1;1167464854
-241.611804;1.01016;0.013664;0.00488;-98;126;-98;1;1167475876
-241.599369;1.012112;0.013664;0.00976;-119;126;-84;1;1167488311
-241.588359;1.012112;0.002928;0.023424;-112;91;-77;1;1167499321
-241.577437;1.0111359;0.001952;0.027328;-119;49;-91;1;1167510243
-241.564063;1.012112;-0.001952;0.026352;-119;7;-112;1;1167523617
-241.552087;1.012112;0.002928;0.017568;-63;-28;-119;1;1167535593
-241.539914;1.016016;0.001952;0.005856;-77;-49;-133;1;1167547766
-241.522802;1.016016;0.010736;-0.015616;-63;-28;-133;1;1167564878
-241.511823;1.014064;0.017568;-0.01952;-42;0;-119;1;1167575857
-241.492399;1.014064;0.020496;-0.01464;-56;70;-105;1;1167595281
-241.481836;1.013088;0.020496;-0.005856;-84;98;-105;1;1167605844
-241.470614;1.014064;0.01952;0.011712;-112;119;-84;1;1167617066
-241.442801;1.0111359;0.011712;0.022448;-126;49;-49;1;1167644879
-241.430069;1.0111359;0.00488;0.018544;-77;28;-49;1;1167657611
-241.412791;1.013088;-0.000976;0.011712;-133;-7;-70;1;1167674889
-241.401775;1.009184;0.0;0.00488;-105;-21;-98;1;1167685905
-241.390779;1.008208;0.0;0.0;-77;-35;-105;1;1167696901
-241.379834;1.013088;0.001952;-0.002928;-70;-35;-119;1;1167707846
-241.368617;1.013088;0.007808;-0.012688;-70;-21;-126;1;1167719063
-241.346976;1.012112;0.007808;-0.005856;-28;49;-112;1;1167740704
-241.313032;1.013088;0.018544;0.003904;-49;70;-112;1;1167774648
-241.279590;1.012112;0.008784;0.013664;-119;42;-70;1;1167808090
-241.246892;1.0111359;0.000976;0.008784;-105;-14;-98;1;1167840788
-241.235668;1.012112;0.006832;0.0;-77;-21;-112;1;1167852012
-241.215762;1.013088;0.008784;-0.008784;-70;0;-112;1;1167871918
-241.200168;1.013088;0.008784;-0.012688;-98;28;-112;1;1167887512
-241.178859;1.013088;0.012688;-0.011712;7;84;-105;1;1167908821
-241.161539;1.0111359;0.010736;0.006832;-126;126;-126;1;1167926141
-241.149984;1.012112;0.018544;0.010736;-84;119;-98;1;1167937696
-241.138596;1.016016;0.017568;0.015616;-84;112;-77;1;1167949084
-241.127673;1.013088;0.011712;0.021472;-126;84;-77;1;1167960007
-241.112545;1.0111359;0.00976;0.026352;-154;42;-77;1;1167975135
-241.093146;1.0111359;0.005856;0.018544;-154;-35;-91;1;1167994534
-241.081695;1.0111359;0.005856;0.007808;-133;-49;-84;1;1168005985
-241.070760;1.0150399;0.00976;-0.006832;-210;-35;-112;1;1168016920
-241.057259;1.012112;0.00976;-0.01952;-105;-14;-84;1;1168030421
-241.046859;1.0150399;0.010736;-0.021472;-77;14;-84;1;1168040821
-241.031303;1.016992;0.007808;-0.021472;-133;35;-91;1;1168056377
-241.010996;1.014064;0.010736;-0.011712;-91;126;-91;1;1168076684
-240.996471;1.0111359;0.01464;0.015616;-84;154;-91;1;1168091209
-240.981222;1.0111359;0.016592;0.021472;-91;140;-91;1;1168106458
-240.970941;1.013088;0.013664;0.026352;-119;98;-84;1;1168116739
-240.946804;1.014064;0.000976;0.022448;-77;-14;-84;1;1168140876
-240.930115;1.013088;0.002928;0.012688;-84;-49;-105;1;1168157565
-240.903576;1.014064;0.011712;-0.012688;-91;-35;-112;1;1168184104
-240.889594;1.013088;0.010736;-0.015616;-56;-7;-98;1;1168198086
-240.849003;1.009184;0.00976;-0.003904;-77;77;-119;1;1168238677
-240.812650;1.0111359;0.010736;0.018544;-119;56;-119;1;1168275030
-240.800543;1.0111359;0.007808;0.018544;-14;28;-98;1;1168287137
-240.789606;1.013088;0.005856;0.021472;21;-14;-91;1;1168298074
-240.778018;1.013088;0.003904;0.016592;-112;-49;-126;1;1168309662
-240.766951;1.013088;0.005856;-0.000976;-49;-63;-140;1;1168320729
-240.751860;1.016992;0.007808;-0.010736;42;-42;-119;1;1168335820
-240.721695;1.0150399;0.012688;-0.01952;-21;42;-140;1;1168365985
-240.701215;1.0111359;0.01464;-0.008784;7;98;-112;1;1168386465
-240.690687;1.016016;0.018544;0.0;-77;119;-119;1;1168396993
-240.679687;1.016016;0.01464;0.011712;-49;147;-105;1;1168407993
-240.668766;1.013088;0.011712;0.025376;21;133;-70;1;1168418914
-240.657116;1.013088;0.007808;0.037088;-63;91;-77;1;1168430564
-240.642410;1.0111359;0.003904;0.027328;-119;-42;-112;1;1168445270
-240.630405;1.0150399;0.00488;0.012688;-7;-77;-98;1;1168457275
-240.619945;1.013088;0.005856;-0.00488;-77;-84;-133;1;1168467735
-240.604539;1.0150399;0.020496;-0.025376;-28;-28;-133;1;1168483141
-240.580483;1.013088;0.022448;-0.02928;-112;63;-91;1;1168507197
-240.568432;1.016016;0.0244;-0.0244;-126;98;-77;1;1168519248
-240.557522;1.0150399;0.020496;-0.011712;-161;147;-70;1;1168530158
-240.542709;1.0111359;0.008784;0.017568;-126;168;-42;1;1168544971
-240.531684;1.016992;0.000976;0.033184;-175;140;-49;1;1168555996
-240.520446;1.012112;-0.003904;0.035136;-217;98;-63;1;1168567234
-240.504428;1.012112;-0.003904;0.032208;-133;28;-63;1;1168583252
-240.480683;1.012112;0.000976;0.000976;-84;-56;-133;1;1168606997
-240.468390;1.014064;0.012688;-0.011712;-91;-63;-140;1;1168619290
-240.424825;1.012112;0.017568;-0.017568;-35;105;-105;1;1168662855
-240.403724;1.013088;0.012688;0.008784;-140;119;-98;1;1168683956
-240.390267;1.007232;0.012688;0.027328;-98;105;-70;1;1168697413
-240.378825;1.0111359;0.008784;0.035136;-140;49;-63;1;1168708855
-240.365398;1.009184;0.003904;0.035136;-105;28;-77;1;1168722282
-240.354378;1.01016;0.00488;0.028304;-112;-21;-84;1;1168733302
-240.340483;1.012112;0.000976;-0.000976;-70;-91;-98;1;1168747197
-240.328468;1.0111359;-0.002928;-0.011712;-98;-70;-119;1;1168759212
-240.317084;1.0150399;-0.00488;-0.020496;-42;-56;-140;1;1168770596
-240.302500;1.016016;0.002928;-0.021472;0;-7;-154;1;1168785180
-240.279287;1.013088;0.020496;0.001952;21;91;-147;1;1168808393
-240.268412;1.01016;0.01952;0.008784;14;98;-133;1;1168819268
-240.254299;1.0111359;0.018544;0.015616;0;77;-126;1;1168833381
-240.239209;1.012112;0.028304;0.018544;-42;49;-98;1;1168848471
-240.215188;1.008208;0.01464;0.021472;-91;-14;-56;1;1168872492
-240.197068;1.0111359;0.0;0.00488;-70;-77;-77;1;1168890612
-240.186090;1.009184;-0.002928;-0.007808;-28;-84;-98;1;1168901590
-240.173280;1.0111359;0.000976;-0.015616;-14;-63;-112;1;1168914400
-240.162789;1.0150399;0.003904;-0.016592;-42;-14;-133;1;1168924891
-240.144862;1.01016;0.001952;-0.011712;-21;35;-147;1;1168942818
-240.133658;1.014064;0.006832;-0.00976;56;56;-154;1;1168954022
-240.121440;1.012112;0.013664;-0.002928;35;56;-168;1;1168966240
-240.108711;1.0111359;0.023424;0.0;-14;63;-175;1;1168978969
-240.081671;1.0150399;0.032208;0.015616;-154;56;-91;1;1169006009
-240.042901;1.016016;0.00976;-0.00488;-203;-28;21;1;1169044779
-240.031563;1.014064;-0.006832;-0.011712;-273;-28;14;1;1169056117
-240.017366;1.013088;-0.020496;-0.01464;-189;7;-7;1;1169070314
-240.002303;1.014064;-0.023424;-0.012688;-84;70;-112;1;1169085377
-239.990843;1.013088;-0.0464;-0.003904;-56;98;-168;1;1169096837
-239.979660;1.016016;-0.001952;0.002928;42;112;-189;1;1169108020
-239.968507;1.012112;0.006832;0.005856;49;98;-189;1;1169119173
-239.956679;1.013088;0.017568;0.013664;-14;70;-196;1;1169131001
-239.945695;1.012112;0.032208;0.008784;-35;56;-189;1;1169141985
-239.932678;1.0150399;0.038064;0.010736;21;42;-126;1;1169155002
-239.904546;1.014064;0.026352;0.003904;-231;14;-28;1;1169183134
-239.889825;1.009184;0.012688;-0.006832;-182;14;14;1;1169197855
-239.877920;1.01016;-0.001952;-0.008784;-189;7;14;1;1169209760
-239.863663;1.01016;-0.016592;-0.013664;-154;84;-49;1;1169224017
-239.850490;1.007232;-0.01952;-0.005856;-126;98;-84;1;1169237190
-239.833974;1.01016;-0.00976;0.008784;-56;112;-161;1;1169253706
-239.821008;1.012112;-0.003904;0.016592;-63;84;-189;1;1169266672
-239.802301;1.013088;0.01464;0.021472;84;56;-203;1;1169285379
-239.789030;1.012112;0.025376;0.01952;7;21;-210;1;1169298650
-239.777796;1.013088;0.033184;0.018544;-35;-28;-203;1;1169309884
-239.766256;1.009184;0.038064;0.012688;14;-35;-154;1;1169321424
-239.750856;1.016992;0.02928;-0.00976;-42;-49;-56;1;1169336824
-239.739305;1.0150399;0.0244;-0.011712;-49;-14;-35;1;1169348375
-239.721306;1.014064;0.007808;-0.016592;-203;21;-35;1;1169366374
-239.708915;1.012112;-0.001952;-0.016592;-112;70;-28;1;1169378765
-239.689359;1.016016;-0.012688;0.0;-140;105;-77;1;1169398321
-239.677561;1.013088;-0.013664;0.012688;-56;112;-98;1;1169410119
-239.663922;1.0111359;-0.00976;0.016592;-14;91;-126;1;1169423758
-239.652358;1.01016;-0.002928;0.021472;-7;56;-154;1;1169435322
-239.636109;1.012112;0.011712;0.016592;-42;-7;-189;1;1169451571
-239.598535;1.014064;0.038064;-0.008784;-28;-49;-98;1;1169489145
-239.579604;1.016992;0.030256;-0.022448;-56;14;-7;1;1169508076
-239.566940;1.016016;0.020496;-0.023424;-161;49;7;1;1169520740
-239.544737;1.013088;0.003904;-0.011712;-245;119;-14;1;1169542943
-239.531871;1.0150399;-0.00488;-0.003904;-259;140;-21;1;1169555809
-239.518580;1.012112;-0.011712;0.013664;-161;126;-49;1;1169569100
-239.505496;1.013088;-0.01464;0.012688;-175;119;-77;1;1169582184
-239.486245;1.013088;-0.00488;0.0244;-63;63;-147;1;1169601435
-239.475272;1.0111359;0.007808;0.021472;-42;21;-168;1;1169612408
-239.450129;1.0111359;0.025376;0.003904;-42;-35;-147;1;1169637551
-239.415926;1.012112;0.023424;-0.013664;-133;63;-49;1;1169671754
-239.400901;1.016016;0.017568;-0.016592;-161;84;-35;1;1169686779
-239.380838;1.012112;0.000976;-0.000976;-252;112;-35;1;1169706842
-239.366521;1.01016;-0.010736;0.012688;-301;140;-77;1;1169721159
-239.353683;1.012112;-0.007808;0.015616;-210;112;-98;1;1169733997
-239.319085;1.012112;0.002928;0.020496;-42;28;-154;1;1169768595
-239.301309;1.0111359;0.011712;0.013664;-91;-14;-182;1;1169786371
-239.289665;1.012112;0.018544;0.00976;-21;-35;-168;1;1169798015
-239.278254;1.0150399;0.023424;0.001952;-7;-49;-147;1;1169809426
-239.263757;1.013088;0.026352;-0.01464;-77;-14;-112;1;1169823923
-239.244752;1.014064;0.016592;-0.015616;-77;56;-56;1;1169842928
-239.226477;1.0150399;0.012688;-0.008784;-119;84;-56;1;1169861203
-239.212132;1.0111359;0.003904;0.006832;-175;91;-84;1;1169875548
-239.192356;1.012112;-0.002928;0.01952;-21;84;-84;1;1169895324
-239.181752;1.01016;-0.003904;0.023424;-21;56;-105;1;1169905928
-239.170559;1.01016;0.0;0.026352;-49;21;-133;1;1169917121
-239.126561;1.0179679;0.018544;-0.003904;28;-77;-126;1;1169961119
-239.111444;1.016016;0.0244;-0.015616;-70;-28;-98;1;1169976236
-239.092498;1.014064;0.01952;-0.013664;-56;35;-42;1;1169995182
-239.079635;1.012112;0.01464;-0.00976;-56;63;-42;1;1170008045
-239.068973;1.0150399;0.008784;-0.006832;-91;77;-42;1;1170018707
-239.054918;1.014064;0.005856;0.0;-126;77;-42;1;1170032762
