t_s;ax;ay;az;gx;gy;gz;irq_runs;uptime_us
-29.966462;0.984784;0.065392;-0.005856;-21;14;-35;1;854062398
-29.952371;0.982831936;0.062464;-0.002928;-28;14;-21;1;854076489
-29.922204;0.981856;0.052704;-0.005856;-14;0;-14;1;854106656
-29.908489;0.983808;0.049776;-0.00488;14;0;-21;1;854120371
-29.886541;0.986736;0.046848;0.002928;28;0;-63;1;854142319
-29.875960;0.982831936;0.044896;0.001952;91;-7;-70;1;854152900
-29.861784;0.979904;0.051728;-0.001952;175;-14;-77;1;854167076
-29.850664;0.98771196;0.05368;-0.001952;203;-28;-91;1;854178196
-29.832524;0.988688;0.060512;-0.00976;147;-35;-98;1;854196336
-29.819395;0.984784;0.063439992;-0.005856;161;-28;-91;1;854209465
-29.799560;0.982831936;0.06832;-0.00976;133;-42;-63;1;854229300
-29.788517;0.98576;0.065392;-0.01464;42;-21;-28;1;854240343
-29.777974;0.986736;0.061488;-0.013664;14;-7;-21;1;854250886
-29.755911;0.983808;0.050752;-0.00488;-7;-7;-21;1;854272949
-29.744986;0.986736;0.046848;-0.00488;35;-14;-28;1;854283874
-29.733545;0.986736;0.046848;-0.002928;98;-14;-42;1;854295315
-29.719857;0.983808;0.0488;-0.00488;112;-7;-56;1;854309003
-29.702163;0.980879936;0.052704;-0.005856;119;-21;-91;1;854326697
-29.688518;0.986736;0.05856;-0.005856;161;-35;-91;1;854340342
-29.675937;0.986736;0.070272;-0.016592;147;-28;-70;1;854352923
-29.665159;0.983808;0.070272;-0.01952;84;-7;-56;1;854363701
-29.642316;0.982831936;0.069296;-0.016592;-35;21;0;1;854386544
-29.624101;0.98576;0.061488;-0.016592;-126;35;21;1;854404759
-29.598564;0.981856;0.05368;-0.003904;-154;56;21;1;854430296
-29.587519;0.982831936;0.046848;0.005856;-126;21;14;1;854441341
-29.569124;0.986736;0.044896;0.0;-98;0;0;1;854459736
-29.549159;0.983808;0.045872;-0.008784;84;0;-35;1;854479701
-29.538765;0.982831936;0.052704;-0.00976;70;14;-49;1;854490095
-29.520971;0.980879936;0.062464;-0.013664;7;14;-56;1;854507889
-29.508923;0.981856;0.067343992;-0.015616;49;21;-35;1;854519937
-29.492529;0.984784;0.0732;-0.01464;-14;63;-21;1;854536331
-29.479396;0.983808;0.070272;-0.008784;-140;77;-21;1;854549464
-29.425410;0.980879936;0.03904;0.00976;77;-14;-42;1;854603450
-29.408808;0.982831936;0.03904;0.003904;140;-42;-56;1;854620052
-29.396857;0.984784;0.04392;-0.003904;147;-63;-91;1;854632003
-29.384091;0.984784;0.05368;-0.018544;245;-42;-133;1;854644769
-29.373056;0.983808;0.062464;-0.016592;280;-21;-126;1;854655804
-29.360392;0.986736;0.070272;-0.012688;294;0;-112;1;854668468
-29.342540;0.982831936;0.0732;-0.006832;42;-7;-70;1;854686320
-29.329019;0.982831936;0.070272;-0.007808;-35;-7;-56;1;854699841
-29.312522;0.981856;0.062464;0.005856;28;7;-14;1;854716338
-29.301022;0.981856;0.057584;0.006832;-28;-14;-14;1;854727838
-29.283785;0.98576;0.04392;-0.001952;49;-70;-14;1;854745075
-29.272870;0.982831936;0.041968;-0.012688;84;-77;-35;1;854755990
-29.259399;0.984784;0.038064;-0.01464;140;-63;-70;1;854769461
-29.242351;0.986736;0.0488;-0.015616;315;-35;-126;1;854786509
-29.229207;0.984784;0.05856;-0.015616;280;-28;-140;1;854799653
-29.218705;0.98771196;0.071247992;-0.016592;224;-21;-140;1;854810155
-29.207309;0.984784;0.07808;-0.013664;196;-7;-119;1;854821551
-29.192416;0.983808;0.077104;-0.007808;154;14;-56;1;854836444
-29.176044;0.982831936;0.077104;-0.003904;84;7;-35;1;854852816
-29.164890;0.984784;0.0732;-0.008784;-35;-7;-14;1;854863970
-29.153890;0.981856;0.060512;-0.010736;-140;0;49;1;854874970
-29.142155;0.98576;0.05368;-0.010736;-161;7;42;1;854886705
-29.131478;0.983808;0.046848;-0.008784;-189;7;21;1;854897382
-29.117246;0.98576;0.045872;-0.010736;-119;7;0;1;854911614
-29.106774;0.982831936;0.04392;-0.010736;28;14;7;1;854922086
-29.095231;0.981856;0.045872;-0.010736;70;21;-7;1;854933629
-29.084228;0.986736;0.046848;-0.010736;-7;35;-42;1;854944632
-29.073230;0.981856;0.057584;-0.003904;84;42;-70;1;854955630
-29.058507;0.982831936;0.066368;-0.002928;147;21;-70;1;854970353
-29.042507;0.981856;0.077104;-0.003904;0;14;-42;1;854986353
-29.014920;0.984784;0.069296;-0.008784;-98;7;21;1;855013940
-28.993965;0.980879936;0.057584;-0.013664;-154;14;42;1;855034895
-28.961746;0.984784;0.040016;-0.003904;-119;56;0;1;855067114
-28.947072;0.98576;0.040016;0.002928;-84;42;-28;1;855081788
-28.933963;0.984784;0.040016;0.006832;0;28;-56;1;855094897
-28.922730;0.982831936;0.051728;0.006832;112;0;-91;1;855106130
-28.908308;0.982831936;0.054656;0.00488;168;-21;-98;1;855120552
-28.895976;0.984784;0.056608;0.001952;161;-42;-98;1;855132884
-28.869891;0.983808;0.067343992;-0.018544;133;-35;-63;1;855158969
-28.858981;0.98576;0.065392;-0.015616;98;-14;-56;1;855169879
-28.845406;0.983808;0.063439992;-0.015616;35;0;-42;1;855183454
-28.830310;0.983808;0.055632;-0.006832;-28;7;-21;1;855198550
-28.817199;0.982831936;0.050752;-0.00488;7;14;-28;1;855211661
-28.800656;0.981856;0.044896;0.003904;63;0;-56;1;855228204
-28.788748;0.981856;0.044896;0.007808;112;-21;-70;1;855240112
-28.761094;0.983808;0.052704;-0.003904;252;-70;-112;1;855267766
-28.746911;0.981856;0.061488;-0.010736;252;-63;-119;1;855281949
-28.732386;0.981856;0.067343992;-0.017568;238;-56;-112;1;855296474
-28.707494;0.98576;0.072224;-0.0244;98;-14;-49;1;855321366
-28.695143;0.984784;0.071247992;-0.017568;-21;14;-35;1;855333717
-28.682086;0.984784;0.070272;-0.015616;-77;42;-14;1;855346774
-28.671131;0.984784;0.065392;-0.003904;-70;35;0;1;855357729
-28.658103;0.982831936;0.051728;0.003904;-77;14;7;1;855370757
-28.647115;0.984784;0.047824;0.001952;-70;0;-14;1;855381745
-28.620575;0.982831936;0.047824;-0.010736;126;-35;-49;1;855408285
-28.609574;0.98576;0.052704;-0.018544;119;-35;-70;1;855419286
-28.595769;0.986736;0.061488;-0.020496;119;-21;-84;1;855433091
-28.582969;0.984784;0.070272;-0.0244;119;7;-77;1;855445891
-28.560084;0.98576;0.081008;-0.016592;-63;70;-14;1;855468776
-28.547040;0.979904;0.077104;-0.008784;-140;77;14;1;855481820
-28.533178;0.986736;0.06832;-0.003904;-189;77;35;1;855495682
-28.508154;0.981856;0.042944;0.006832;-189;35;35;1;855520706
-28.496727;0.982831936;0.042944;0.007808;-133;0;21;1;855532133
-28.452499;0.982831936;0.044896;-0.015616;112;-7;-77;1;855576361
-28.441140;0.986736;0.052704;-0.018544;133;7;-98;1;855587720
-28.423871;0.98576;0.0732;-0.01464;112;42;-77;1;855604989
-28.403374;0.984784;0.071247992;-0.000976;-7;63;-42;1;855625486
-28.390297;0.982831936;0.0732;0.00488;-49;56;-14;1;855638563
-28.379672;0.984784;0.065392;0.005856;-91;35;0;1;855649188
-28.368992;0.983808;0.05;06832;-98;7;14;1;855659868
-28.350459;0.984784;0.044896;0.006832;-49;-35;0;1;855678401
-28.338783;0.980879936;0.040016;0.0;-7;-56;-21;1;855690077
-28.319064;0.984784;0.035136;-0.012688;147;-63;-70;1;855709796
-28.300982;0.984784;0.050752;-0.01952;252;-21;-112;1;855727878
-28.287839;0.982831936;0.064416;-0.013664;217;14;-126;1;855741021
-28.269050;0.982831936;0.072224;-0.003904;210;21;-112;1;855759810
-28.256584;0.983808;0.079055992;0.002928;112;0;-63;1;855772276
-28.243447;0.98576;0.077104;0.002928;42;-21;-42;1;855785413
-28.223974;0.982831936;0.05856;-0.001952;-7;-56;7;1;855804886
-28.192448;0.982831936;0.041968;-0.017568;7;-49;-21;1;855836412
-28.169280;0.986736;0.049776;-0.017568;105;-14;-56;1;855859580
-28.155934;0.983808;0.052704;-0.013664;154;14;-98;1;855872926
-28.134000;0.98576;0.06832;-0.005856;175;28;-98;1;855894860
-28.122978;0.983808;0.071247992;-0.003904;147;21;-77;1;855905882
-28.103631;0.983808;0.075151992;-0.002928;0;0;-28;1;855925229
-28.092706;0.982831936;0.075151992;-0.00488;-70;-14;0;1;855936154
-28.080213;0.983808;0.069296;-0.010736;-112;-14;21;1;855948647
-28.066753;0.983808;0.05856;-0.011712;-126;-7;35;1;855962107
-28.054078;0.984784;0.047824;-0.013664;-133;21;28;1;855974782
-28.042925;0.981856;0.041968;-0.017568;-126;28;14;1;855985935
-28.031953;0.986736;0.045872;-0.011712;-98;49;-7;1;855996907
-28.019889;0.986736;0.04392;-0.010736;-35;56;-35;1;856008971
-28.006951;0.983808;0.04392;-0.00488;28;63;-49;1;856021909
-27.992262;0.979904;0.056608;0.001952;56;42;-70;1;856036598
-27.958421;0.984784;0.070272;-0.001952;7;0;-42;1;856070439
-27.947639;0.98576;0.070272;-0.003904;-28;-7;-14;1;856081221
-27.931035;0.983808;0.064416;-0.011712;-98;-14;14;1;856097825
-27.917359;0.984784;0.055632;-0.012688;-133;-7;21;1;856111501
-27.893868;0.982831936;0.04392;-0.010736;-77;35;-7;1;856134992
-27.882503;0.983808;0.04392;-0.002928;-21;35;-35;1;856146357
-27.863951;0.982831936;0.047824;0.000976;91;21;-70;1;856164909
-27.851261;0.983808;0.051728;0.005856;112;7;-77;1;856177599
-27.833384;0.983808;0.056608;0.003904;154;-28;-84;1;856195476
-27.822556;0.980879936;0.063439992;-0.000976;182;-42;-77;1;856206304
-27.810065;0.98576;0.069296;-0.003904;175;-56;-70;1;856218795
-27.798920;0.98576;0.070272;-0.010736;119;-49;-56;1;856229940
-27.787868;0.982831936;0.069296;-0.013664;63;-42;-42;1;856240992
-27.776329;0.983808;0.062464;-0.018544;35;-28;-28;1;856252531
-27.762397;0.983808;0.054656;-0.01464;0;0;-21;1;856266463
-27.748579;0.98576;0.05368;-0.00976;-7;14;-28;1;856280281
-27.732157;0.979904;0.054656;-0.000976;28;14;-42;1;856296703
-27.721258;0.981856;0.049776;0.00488;84;0;-42;1;856307602
-27.702423;0.979904;0.051728;0.0;140;-35;-70;1;856326437
-27.689019;0.981856;0.055632;-0.002928;161;-49;-84;1;856339841
-27.675284;0.984784;0.057584;-0.008784;189;-49;-77;1;856353576
-27.665012;0.983808;0.063439992;-0.013664;182;-42;-70;1;856363848
-27.653451;0.984784;0.067343992;-0.01952;77;-28;-63;1;856375409
-27.642690;0.983808;0.070272;-0.021472;63;-7;-49;1;856386170
-27.625214;0.984784;0.070272;-0.018544;42;7;-28;1;856403646
-27.613328;0.98576;0.060512;-0.011712;-42;35;0;1;856415532
-27.597006;0.983808;0.061488;-0.011712;-91;42;-7;1;856431854
-27.585426;0.981856;0.057584;-0.006832;-119;42;0;1;856443434
-27.558521;0.981856;0.052704;0.000976;-28;14;-21;1;856470339
-27.534036;0.983808;0.051728;-0.00488;49;0;-35;1;856494824
-27.522832;0.981856;0.05368;-0.005856;49;7;-42;1;856506028
-27.503398;0.98771196;0.059536;-0.012688;7;14;-49;1;856525462
-27.492719;0.983808;0.063439992;-0.012688;-7;28;-42;1;856536141
-27.473995;0.983808;0.069296;-0.00488;-70;42;-21;1;856554865
-27.429618;0.983808;0.050752;0.0;-140;28;14;1;856599242
-27.418980;0.981856;0.047824;0.002928;-98;21;7;1;856609880
-27.407094;0.981856;0.044896;0.003904;-70;7;-7;1;856621766
-27.396021;0.981856;0.045872;0.003904;-35;-14;-28;1;856632839
-27.384586;0.982831936;0.04392;0.001952;35;-21;-42;1;856644274
-27.372371;0.980879936;0.045872;0.0;119;-28;-56;1;856656489
-27.359045;0.982831936;0.055632;-0.011712;147;-28;-77;1;856669815
-27.347810;0.981856;0.060512;-0.012688;133;-28;-84;1;856681050
-27.321971;0.986736;0.062464;-0.010736;105;0;-56;1;856706889
-27.307070;0.98576;0.064416;-0.001952;7;7;-35;1;856721790
-27.290584;0.984784;0.054656;0.0;28;-14;-14;1;856738276
-27.278946;0.98576;0.0488;0.0;14;-21;-21;1;856749914
-27.257029;0.982831936;0.040992;0.003904;84;-42;-56;1;856771831
-27.246146;0.984784;0.042944;0.001952;147;-63;-70;1;856782714
-27.231277;0.983808;0.047824;-0.003904;217;-77;-91;1;856797583
-27.198384;0.982831936;0.064416;-0.021472;273;-35;-126;1;856830476
-27.187405;0.984784;0.069296;-0.020496;238;-14;-112;1;856841455
-27.173348;0.984784;0.075151992;-0.018544;168;0;-98;1;856855512
-27.150044;0.979904;0.06832;-0.006832;77;21;-42;1;856878816
-27.137604;0.97892796;0.063439992;-0.005856;-14;14;-21;1;856891256
-27.120776;0.983808;0.059536;-0.003904;-35;7;-14;1;856908084
-27.102015;0.979904;0.049776;-0.00488;-21;-7;-28;1;856926845
-27.090435;0.982831936;0.050752;-0.006832;14;-14;-28;1;856938425
-27.079287;0.98576;0.049776;-0.011712;77;-14;-56;1;856949573
-27.064986;0.983808;0.055632;-0.013664;63;0;-77;1;856963874
-27.051394;0.983808;0.057584;-0.013664;77;14;-84;1;856977466
-27.040060;0.983808;0.062464;-0.012688;119;28;-77;1;856988800
-27.020092;0.980879936;0.072224;-0.011712;35;42;-56;1;857008768
-26.989157;0.98576;0.072224;-0.001952;-126;49;21;1;857039703
-26.951814;0.983808;0.050752;-0.005856;-175;28;49;1;857077046
-26.923155;0.982831936;0.040992;-0.011712;-105;28;-7;1;857105705
-26.911595;0.982831936;0.04392;-0.007808;-28;35;-28;1;857117265
-26.896567;0.983808;0.051728;-0.002928;63;42;-56;1;857132293
-26.885603;0.982831936;0.05856;0.003904;63;42;-63;1;857143257
-26.872785;0.980879936;0.061488;0.002928;70;28;-63;1;857156075
-26.860297;0.983808;0.066368;0.003904;70;0;-49;1;857168563
-26.847861;0.981856;0.064416;0.0;56;-21;-28;1;857180999
-26.823004;0.979904;0.05856;-0.003904;-28;-35;-7;1;857205856
-26.801125;0.982831936;0.047824;-0.010736;-14;-35;-7;1;857227735
-26.787945;0.981856;0.044896;-0.010736;14;-28;-21;1;857240915
-26.771989;0.984784;0.044896;-0.006832;112;-7;-63;1;857256871
-26.760919;0.984784;0.044896;-0.005856;133;0;-84;1;857267941
-26.743859;0.984784;0.05368;-0.002928;203;-7;-112;1;857285001
-26.723064;0.980879936;0.062464;-0.001952;210;-14;-119;1;857305796
-26.703932;0.980879936;0.069296;0.0;182;-42;-91;1;857324928
-26.691849;0.981856;0.069296;-0.003904;175;-56;-70;1;857337011
-26.680961;0.981856;0.064416;-0.006832;133;-56;-63;1;857347899
-26.668683;0.984784;0.063439992;-0.01464;91;-49;-49;1;857360177
-26.654012;0.984784;0.057584;-0.01464;56;-21;-42;1;857374848
-26.633986;0.979904;0.056608;-0.013664;14;0;-42;1;857394874
-26.620002;0.980879936;0.054656;-0.010736;14;14;-49;1;857408858
-26.607093;0.979904;0.054656;-0.00976;35;21;-56;1;857421767
-26.595867;0.982831936;0.059536;-0.005856;84;21;-63;1;857432993
-26.583938;0.981856;0.062464;-0.00488;56;14;-63;1;857444922
-26.568003;0.983808;0.062464;-0.002928;35;7;-56;1;857460857
-26.552384;0.981856;0.066368;-0.008784;56;7;-28;1;857476476
-26.533992;0.98576;0.069296;-0.011712;-63;7;-14;1;857494868
-26.522538;0.980879936;0.069296;-0.012688;-84;7;7;1;857506322
-26.509621;0.984784;0.063439992;-0.013664;-98;14;28;1;857519239
-26.497173;0.984784;0.061488;-0.012688;-126;28;28;1;857531687
-26.477294;0.98576;0.057584;-0.008784;-140;49;14;1;857551566
-26.397702;0.98576;0.052704;-0.000976;35;-28;-21;1;857631158
-26.384707;0.981856;0.052704;-0.006832;42;-28;-21;1;857644153
-26.372473;0.981856;0.054656;-0.00976;21;-14;-35;1;857656387
-26.356772;0.983808;0.05856;-0.011712;28;0;-28;1;857672088
-26.342479;0.982831936;0.056608;-0.00976;35;7;-28;1;857686381
-26.331035;0.980879936;0.054656;-0.00488;21;14;-35;1;857697825
-26.312539;0.984784;0.052704;0.0;49;14;-42;1;857716321
-26.300600;0.984784;0.0488;0.00488;42;-7;-49;1;857728260
-26.278915;0.986736;0.045872;0.0;168;-42;-70;1;857749945
-26.266924;0.981856;0.050752;-0.003904;154;-49;-84;1;857761936
-26.246538;0.984784;0.050752;-0.006832;203;-49;-112;1;857782322
-26.232476;0.983808;0.057584;-0.00976;245;-49;-112;1;857796384
-26.220811;0.988688;0.057584;-0.011712;182;-35;-126;1;857808049
-26.200895;0.982831936;0.062464;-0.005856;182;-21;-105;1;857827965
-26.189293;0.982831936;0.062464;-0.000976;224;-28;-84;1;857839567
-26.159267;0.982831936;0.066368;-0.006832;56;-42;-91;1;857869593
-26.145268;0.983808;0.065392;-0.011712;119;-28;-56;1;857883592
-26.126087;0.984784;0.057584;-0.01464;77;-21;-56;1;857902773
-26.114297;0.983808;0.060512;-0.013664;14;-14;-77;1;857914563
-26.091776;0.982831936;0.064416;-0.010736;70;28;-56;1;857937084
-26.080734;0.983808;0.061488;-0.007808;-7;35;-63;1;857948126
-26.069223;0.984784;0.067343992;-0.003904;-7;28;-56;1;857959637
-26.051328;0.981856;0.066368;-0.00488;49;7;-21;1;857977532
-26.039949;0.982831936;0.065392;-0.003904;0;0;-7;1;857988911
-26.028363;0.98576;0.064416;-0.00488;-56;7;-14;1;858000497
-26.004001;0.982831936;0.061488;-0.012688;-70;-7;14;1;858024859
-25.990950;0.986736;0.056608;-0.01464;-63;14;14;1;858037910
-25.980041;0.988688;0.05368;-0.013664;-84;35;7;1;858048819
-25.946757;0.979904;0.055632;-0.002928;-70;42;0;1;858082103
-25.932218;0.983808;0.052704;-0.000976;-35;42;0;1;858096642
-25.894976;0.982831936;0.055632;-0.000976;-28;-7;7;1;858133884
-25.880830;0.98576;0.050752;-0.007808;-14;-14;-7;1;858148030
-25.854985;0.982831936;0.052704;-0.012688;-28;7;-28;1;858173875
-25.842799;0.98576;0.050752;-0.00976;21;7;-21;1;858186061
-25.830877;0.983808;0.0488;-0.007808;28;14;-21;1;858197983
-25.813601;0.984784;0.049776;-0.003904;7;21;-56;1;858215259
-25.802107;0.981856;0.051728;-0.001952;84;28;-63;1;858226753
-25.790809;0.984784;0.052704;0.002928;133;14;-63;1;858238051
-25.779589;0.981856;0.055632;0.000976;91;-28;-84;1;858249271
-25.755113;0.981856;0.059536;-0.001952;147;-42;-77;1;858273747
-25.733606;0.984784;0.05856;-0.006832;140;-42;-77;1;858295254
-25.721574;0.983808;0.057584;-0.011712;126;-42;-84;1;858307286
-25.710106;0.983808;0.057584;-0.015616;112;-35;-77;1;858318754
-25.698208;0.982831936;0.054656;-0.013664;133;0;-77;1;858330652
-25.686901;0.98576;0.057584;-0.00976;126;14;-77;1;858341959
-25.675742;0.98576;0.054656;-0.002928;112;7;-91;1;858353118
-25.665046;0.979904;0.061488;-0.001952;119;0;-91;1;858363814
-25.652942;0.983808;0.062464;-0.000976;126;-7;-84;1;858375918
-25.632545;0.983808;0.059536;-0.000976;140;-21;-77;1;858396315
-25.619243;0.97892796;0.062464;-0.000976;126;-28;-77;1;858409617
-25.595525;0.981856;0.063439992;-0.018544;105;-35;-42;1;858433335
-25.584454;0.98576;0.065392;-0.01952;63;-14;-42;1;858444406
-25.560101;0.981856;0.065392;-0.013664;7;21;-42;1;858468759
-25.522543;0.982831936;0.060512;-0.001952;-63;28;0;1;858506317
-25.509730;0.98576;0.05856;-0.001952;-77;21;0;1;858519130
-25.491566;0.983808;0.054656;-0.006832;-14;0;14;1;858537294
-25.480150;0.986736;0.056608;-0.008784;-28;0;0;1;858548710
-25.439315;0.98576;0.056608;-0.011712;-21;14;7;1;858589545
-25.425689;0.980879936;0.056608;-0.011712;-77;35;-7;1;858603171
-25.406203;0.982831936;0.057584;-0.005856;-63;42;7;1;858622657
-25.394740;0.986736;0.051728;0.000976;-70;35;0;1;858634120
-25.383398;0.986736;0.052704;-0.000976;-56;21;-7;1;858645462
-25.372324;0.982831936;0.054656;-0.002928;-49;7;-7;1;858656536
-25.348679;0.981856;0.05368;-0.002928;-7;0;-7;1;858680181
-25.332513;0.989663936;0.047824;-0.00488;-14;-14;-35;1;858696347
-25.318849;0.983808;0.052704;-0.006832;7;-14;-42;1;858710011
-25.302387;0.983808;0.052704;-0.00976;77;0;-49;1;858726473
-25.287254;0.984784;0.052704;-0.00488;49;14;-56;1;858741606
-25.276329;0.981856;0.049776;-0.000976;105;7;-70;1;858752531
-25.265773;0.979904;0.052704;-0.001952;91;-7;-77;1;858763087
-25.253679;0.981856;0.055632;-0.000976;112;-7;-77;1;858775181
-25.241006;0.983808;0.055632;-0.000976;154;-7;-77;1;858787854
-25.220847;0.984784;0.057584;0.0;98;-35;-84;1;858808013
-25.207990;0.983808;0.057584;-0.005856;161;-42;-70;1;858820870
-25.192490;0.979904;0.056608;-0.01464;98;-28;-84;1;858836370
-25.180802;0.983808;0.059536;-0.012688;91;-14;-84;1;858848058
-25.165121;0.98576;0.059536;-0.008784;119;0;-77;1;858863739
-25.143652;0.981856;0.059536;-0.006832;77;0;-70;1;858885208
-25.123930;0.982831936;0.061488;-0.002928;84;0;-49;1;858904930
-25.112048;0.983808;0.060512;-0.002928;112;-7;-42;1;858916812
-25.095088;0.981856;0.05856;-0.00976;28;-28;-56;1;858933772
-25.083308;0.984784;0.064416;-0.013664;21;-21;-42;1;858945552
-25.072685;0.982831936;0.063439992;-0.013664;70;-7;-28;1;858956175
-25.059275;0.983808;0.060512;-0.011712;49;0;-21;1;858969585
-25.048943;0.984784;0.061488;-0.013664;-21;0;-28;1;858979917
-25.037954;0.983808;0.065392;-0.01464;-28;14;-14;1;858990906
-24.998433;0.982831936;0.062464;-0.005856;-91;49;14;1;859030427
-24.983937;0.981856;0.056608;-0.00488;-140;35;21;1;859044923
-24.972931;0.983808;0.056608;-0.002928;-98;35;21;1;859055929
-24.961141;0.986736;0.056608;-0.003904;-70;35;21;1;859067719
-24.949236;0.979904;0.052704;-0.001952;-105;28;7;1;859079624
-24.920542;0.98576;0.05368;-0.006832;-7;7;7;1;859108318
-24.905024;0.982831936;0.05856;-0.006832;-42;7;0;1;859123836
-24.889321;0.982831936;0.059536;-0.007808;-49;21;0;1;859139539
-24.878851;0.980879936;0.055632;-0.006832;-63;14;7;1;859150009
-24.863379;0.98576;0.051728;-0.005856;-42;21;0;1;859165481
-24.852623;0.981856;0.049776;-0.002928;-35;35;-14;1;859176237
-24.827662;0.982831936;0.0488;0.002928;-14;28;-35;1;859201198
-24.811540;0.98576;0.050752;0.0;28;-7;-35;1;859217320
-24.800888;0.983808;0.046848;0.002928;56;-14;-56;1;859227972
-24.787277;0.982831936;0.049776;0.0;105;-28;-63;1;859241583
-24.774922;0.983808;0.052704;0.000976;140;-35;-77;1;859253938
-24.764045;0.980879936;0.051728;-0.002928;154;-42;-84;1;859264815
-24.744032;0.983808;0.054656;-0.00976;140;-42;-98;1;859284828
-24.709602;0.983808;0.056608;-0.003904;182;-28;-91;1;859319258
-24.698718;0.982831936;0.057584;-0.001952;154;-28;-91;1;859330142
-24.685944;0.982831936;0.059536;-0.001952;161;-28;-91;1;859342916
-24.675022;0.983808;0.061488;-0.006832;168;-35;-84;1;859353838
-24.662115;0.984784;0.059536;-0.008784;161;-42;-84;1;859366745
-24.644028;0.986736;0.059536;-0.008784;168;-49;-84;1;859384832
-24.631955;0.982831936;0.059536;-0.013664;154;-42;-77;1;859396905
-24.614038;0.982831936;0.059536;-0.013664;147;-28;-63;1;859414822
-24.601700;0.980879936;0.062464;-0.011712;105;-21;-70;1;859427160
-24.582397;0.98576;0.065392;-0.013664;98;-7;-56;1;859446463
-24.571985;0.984784;0.06832;-0.005856;91;14;-42;1;859456875
-24.560242;0.98576;0.070272;0.000976;-14;-14;-35;1;859468618
-24.544034;0.98576;0.069296;-0.001952;-28;-21;-14;1;859484826
-24.513048;0.986736;0.065392;-0.012688;-21;-35;7;1;859515812
-24.501908;0.983808;0.057584;-0.016592;-14;-35;14;1;859526952
-24.466105;0.983808;0.055632;-0.020496;-119;77;0;1;859562755
-24.444003;0.983808;0.065392;0.001952;-63;98;-7;1;859584857
-24.413543;0.981856;0.063439992;0.00976;-126;21;21;1;859615317
-24.393745;0.984784;0.051728;-0.000976;-77;-21;35;1;859635115
-24.382686;0.983808;0.047824;-0.008784;-112;-35;21;1;859646174
-24.351422;0.98771196;0.0488;-0.022448;-28;14;0;1;859677438
-24.333918;0.982831936;0.046848;-0.012688;-42;63;-42;1;859694942
-24.313928;0.98576;0.051728;-0.000976;63;70;-49;1;859714932
-24.299602;0.982831936;0.052704;0.00976;63;63;-56;1;859729258
-24.286544;0.983808;0.055632;0.015616;42;7;-77;1;859742316
-24.275684;0.982831936;0.060512;0.013664;91;-28;-77;1;859753176
-24.260628;0.982831936;0.059536;0.007808;119;-70;-63;1;859768232
-24.249164;0.984784;0.054656;-0.001952;126;-91;-63;1;859779696
-24.234007;0.983808;0.051728;-0.01952;112;-77;-70;1;859794853
-24.221851;0.983808;0.054656;-0.023424;112;-49;-77;1;859807009
-24.211057;0.986736;0.052704;-0.022448;133;-21;-91;1;859817803
-24.199966;0.983808;0.054656;-0.017568;147;7;-98;1;859828894
-24.188606;0.98576;0.057584;-0.001952;147;42;-105;1;859840254
-24.177814;0.984784;0.060512;0.005856;119;28;-105;1;859851046
-24.154038;0.984784;0.059536;0.011712;175;-21;-84;1;859874822
-24.142864;0.982831936;0.05856;0.011712;210;-56;-84;1;859885996
-24.118924;0.981856;0.063439992;-0.003904;189;-105;-84;1;859909936
-24.104955;0.981856;0.059536;-0.01952;203;-91;-56;1;859923905
-24.092249;0.983808;0.060512;-0.026352;154;-70;-56;1;859936611
-24.070025;0.984784;0.064416;-0.028304;91;0;-56;1;859958835
-24.059066;0.986736;0.064416;-0.022448;84;35;-49;1;859969794
-24.046773;0.983808;0.066368;-0.001952;14;63;-28;1;859982087
-24.017709;0.981856;0.062464;0.007808;-56;28;-14;1;860011151
-24.005427;0.981856;0.059536;0.005856;0;-21;14;1;860023433
-23.992608;0.98576;0.057584;0.0;-42;-42;14;1;860036252
-23.981862;0.986736;0.056608;-0.012688;-70;-49;0;1;860046998
-23.946089;0.986736;0.054656;-0.028304;-91;49;-7;1;860082771
-23.930154;0.98576;0.056608;-0.021472;-98;84;-7;1;860098706
-23.916090;0.983808;0.055632;-0.001952;-126;105;0;1;860112770
-23.887300;0.983808;0.057584;0.013664;-98;77;0;1;860141560
-23.876673;0.979904;0.057584;0.012688;-91;42;0;1;860152187
-23.851639;0.983808;0.050752;-0.006832;-70;-21;0;1;860177221
-23.832421;0.983808;0.045872;-0.017568;-35;-7;-21;1;860196439
-23.816435;0.984784;0.0488;-0.020496;-21;7;-35;1;860212425
-23.791186;0.982831936;0.050752;-0.005856;28;63;-63;1;860237674
-23.778544;0.981856;0.05368;0.005856;21;63;-77;1;860250316
-23.758222;0.984784;0.05368;0.01464;98;28;-77;1;860270638
-23.742519;0.983808;0.05856;0.00976;126;-42;-84;1;860286341
-23.731480;0.983808;0.055632;0.003904;119;-63;-77;1;860297380
-23.711129;0.984784;0.05368;-0.007808;161;-84;-70;1;860317731
-23.690669;0.984784;0.052704;-0.01952;161;-56;-84;1;860338191
-23.678573;0.983808;0.05856;-0.018544;147;-35;-91;1;860350287
-23.662372;0.982831936;0.062464;-0.010736;161;0;-84;1;860366488
-23.642103;0.980879936;0.064416;-0.001952;147;0;-84;1;860386757
-23.630692;0.981856;0.062464;0.001952;154;-14;-77;1;860398168
-23.611501;0.981856;0.059536;0.001952;161;-49;-56;1;860417359
-23.599047;0.980879936;0.063439992;-0.001952;147;-70;-49;1;860429813
-23.581283;0.982831936;0.060512;-0.01464;133;-77;-42;1;860447577
-23.570614;0.981856;0.05856;-0.016592;133;-70;-42;1;860458246
-23.557384;0.98576;0.05856;-0.0244;105;-56;-42;1;860471476
-23.541540;0.982831936;0.05856;-0.023424;77;0;-42;1;860487320
-23.512864;0.981856;0.066368;-0.007808;-7;42;-21;1;860515996
-23.501030;0.986736;0.064416;-0.006832;-21;42;-14;1;860527830
-23.485717;0.984784;0.063439992;-0.000976;-56;28;0;1;860543143
-23.473865;0.980879936;0.063439992;-0.000976;-98;14;7;1;860554995
-23.423796;0.984784;0.052704;-0.022448;-84;21;7;1;860605064
-23.407735;0.984784;0.052704;-0.016592;-91;63;-7;1;860621125
-23.394973;0.979904;0.056608;-0.010736;-112;77;-14;1;860633887
-23.383848;0.982831936;0.054656;-0.008784;-112;91;-21;1;860645012
-23.371545;0.983808;0.057584;0.00488;-84;77;-21;1;860657315
-23.360056;0.982831936;0.05856;0.008784;-91;63;-21;1;860668804
-23.346076;0.984784;0.059536;0.008784;-77;42;-14;1;860682784
-23.323355;0.982831936;0.050752;0.0;-63;-7;-14;1;860705505
-23.312823;0.983808;0.0488;-0.005856;-56;-14;-21;1;860716037
-23.301634;0.986736;0.046848;-0.013664;0;7;-42;1;860727226
-23.290703;0.98576;0.052704;-0.011712;-7;14;-56;1;860738157
-23.279830;0.984784;0.0488;-0.011712;14;28;-63;1;860749030
-23.264588;0.983808;0.052704;-0.007808;63;35;-63;1;860764272
-23.232984;0.98576;0.055632;0.008784;112;21;-84;1;860795876
-23.217912;0.979904;0.059536;0.010736;126;-28;-77;1;860810948
-23.193452;0.98576;0.05856;0.002928;133;-70;-70;1;860835408
-23.181226;0.982831936;0.057584;-0.010736;154;-84;-63;1;860847634
-23.163986;0.981856;0.05856;-0.017568;175;-70;-56;1;860864874
-23.151651;0.984784;0.056608;-0.01952;147;-56;-63;1;860877209
-23.133640;0.98576;0.054656;-0.011712;147;-21;-70;1;860895220
-23.120670;0.98576;0.061488;-0.000976;147;-7;-77;1;860908190
-23.110111;0.98576;0.064416;0.000976;140;-21;-77;1;860918749
-23.098758;0.983808;0.062464;0.00488;168;-35;-70;1;860930102
-23.086936;0.980879936;0.060512;0.003904;168;-56;-56;1;860941924
-23.075651;0.982831936;0.061488;0.0;147;-70;-49;1;860953209
-23.064765;0.982831936;0.059536;-0.00488;161;-84;-49;1;860964095
-23.049596;0.98576;0.063439992;-0.023424;147;-70;-49;1;860979264
-23.039036;0.986736;0.063439992;-0.026352;105;-56;-49;1;860989824
-23.027485;0.983808;0.063439992;-0.027328;77;-21;-35;1;861001375
-23.016985;0.98576;0.064416;-0.027328;21;7;-28;1;861011875
-23.001873;0.98576;0.064416;-0.025376;-28;42;-21;1;861026987
-22.982392;0.981856;0.05856;-0.007808;-35;70;-14;1;861046468
-22.949332;0.984784;0.061488;0.006832;-84;49;-14;1;861079528
-22.928135;0.980879936;0.054656;-0.011712;-7;-21;-21;1;861100725
-22.916454;0.980879936;0.055632;-0.018544;7;-14;-21;1;861112406
-22.893876;0.984784;0.05856;-0.027328;-70;35;-28;1;861134984
-22.878995;0.979904;0.061488;-0.0244;-105;98;-28;1;861149865
-22.868037;0.98576;0.062464;-0.011712;-119;119;-28;1;861160823
-22.856381;0.984784;0.062464;-0.002928;-105;126;-14;1;861172479
-22.845549;0.982831936;0.062464;0.00488;-119;119;-7;1;861183311
-22.823319;0.980879936;0.057584;0.016592;-161;63;7;1;861205541
-22.812834;0.984784;0.050752;0.015616;-133;35;14;1;861216026
-22.788308;0.983808;0.04392;-0.002928;7;-42;-21;1;861240552
-22.775915;0.983808;0.046848;-0.008784;42;-49;-35;1;861252945
-22.759815;0.984784;0.044896;-0.015616;49;-35;-49;1;861269045
-22.742543;0.986736;0.051728;-0.018544;105;14;-77;1;861286317
-22.728960;0.981856;0.057584;-0.010736;112;35;-84;1;861299900
-22.710884;0.986736;0.063439992;0.001952;98;49;-70;1;861317976
-22.697115;0.981856;0.066368;0.013664;56;7;-35;1;861331745
-22.684878;0.983808;0.059536;0.01464;63;-28;-21;1;861343982
-22.673316;0.980879936;0.057584;0.00976;70;-63;-21;1;861355544
-22.652465;0.982831936;0.051728;0.000976;112;-112;-28;1;861376395
-22.639554;0.98576;0.045872;-0.008784;133;-112;-35;1;861389306
-22.628531;0.98771196;0.047824;-0.015616;154;-105;-49;1;861400329
-22.612436;0.984784;0.0488;-0.023424;203;-63;-77;1;861416424
-22.588133;0.986736;0.057584;-0.016592;252;-14;-91;1;861440727
-22.572313;0.981856;0.065392;-0.006832;154;7;-84;1;861456547
-22.561297;0.979904;0.071247992;-0.000976;119;0;-70;1;861467563
-22.530667;0.986736;0.065392;0.001952;56;-56;-21;1;861498193
-22.497504;0.98576;0.050752;-0.023424;0;-63;0;1;861531356
-22.472439;0.983808;0.050752;-0.027328;0;28;-63;1;861556421
-22.459939;0.981856;0.049776;-0.018544;14;56;-70;1;861568921
-22.420053;0.983808;0.067343992;0.00488;-7;49;-70;1;861608807
-22.408462;0.979904;0.071247992;0.00488;35;28;-49;1;861620398
-22.393507;0.986736;0.066368;-0.005856;-49;-14;-21;1;861635353
-22.383024;0.982831936;0.06832;-0.012688;-91;-14;-7;1;861645836
-22.358950;0.984784;0.060512;-0.020496;-147;7;28;1;861669910
-22.347685;0.98576;0.046848;-0.0244;-140;35;21;1;861681175
-22.332524;0.982831936;0.0488;-0.013664;-147;84;-21;1;861696336
-22.320835;0.983808;0.0488;-0.008784;-91;98;-28;1;861708025
-22.300471;0.980879936;0.050752;0.006832;0;91;-49;1;861728389
-22.287471;0.983808;0.051728;0.012688;-14;56;-63;1;861741389
-22.262340;0.983808;0.066368;0.00488;98;-28;-42;1;861766520
-22.249376;0.983808;0.06832;0.0;49;-56;-35;1;861779484
-22.229876;0.983808;0.062464;-0.017568;7;-49;0;1;861798984
-22.218955;0.98576;0.057584;-0.021472;-7;-28;7;1;861809905
-22.198829;0.983808;0.054656;-0.013664;-28;21;-7;1;861830031
-22.187966;0.983808;0.050752;-0.00976;-28;35;-21;1;861840894
-22.174587;0.980879936;0.052704;0.000976;0;42;-28;1;861854273
-22.145488;0.983808;0.050752;0.013664;112;-14;-49;1;861883372
-22.130613;0.981856;0.055632;0.003904;196;-77;-70;1;861898247
-22.120034;0.982831936;0.056608;-0.007808;203;-91;-63;1;861908826
-22.102551;0.983808;0.057584;-0.020496;147;-70;-70;1;861926309
-22.091281;0.98576;0.064416;-0.021472;91;-49;-77;1;861937579
-22.079888;0.98576;0.065392;-0.021472;105;-28;-56;1;861948972
-22.065253;0.983808;0.061488;-0.021472;126;-7;-42;1;861963607
-22.049322;0.983808;0.060512;-0.00976;0;28;-42;1;861979538
-22.025460;0.983808;0.057584;0.002928;7;28;-28;1;862003400
-22.014700;0.981856;0.054656;0.00488;21;0;-35;1;862014160
-21.992787;0.981856;0.052704;-0.00488;28;-28;-42;1;862036073
-21.974009;0.981856;0.052704;-0.012688;77;-42;-49;1;862054851
-21.937785;0.983808;0.062464;-0.021472;63;14;-70;1;862091075
-21.920859;0.984784;0.065392;-0.008784;0;42;-42;1;862108001
-21.903856;0.982831936;0.067343992;-0.007808;-21;49;-28;1;862125004
-21.892849;0.981856;0.06832;-0.00488;-42;42;-14;1;862136011
-21.881423;0.983808;0.064416;0.000976;-133;35;7;1;862147437
-21.850147;0.983808;0.0488;0.0;-161;-14;21;1;862178713
-21.826155;0.986736;0.047824;-0.011712;-63;-7;0;1;862202705
-21.803337;0.984784;0.047824;-0.008784;21;7;-21;1;862225523
-21.792246;0.984784;0.055632;-0.011712;42;7;-28;1;862236614
-21.773991;0.986736;0.056608;-0.006832;56;28;-35;1;862254869
-21.762834;0.981856;0.060512;-0.003904;42;28;-28;1;862266026
-21.743054;0.982831936;0.064416;0.000976;-7;14;-21;1;862285806
-21.723944;0.982831936;0.062464;-0.006832;-42;-7;-7;1;862304916
-21.710526;0.984784;0.052704;-0.003904;-35;-14;14;1;862318334
-21.699738;0.98576;0.050752;-0.006832;-42;-7;7;1;862329122
-21.687559;0.983808;0.0488;-0.005856;-70;-14;0;1;862341301
-21.677039;0.980879936;0.042944;-0.010736;-56;-14;-14;1;862351821
-21.665142;0.982831936;0.038064;-0.005856;28;-14;-28;1;862363718
-21.644055;0.984784;0.047824;-0.001952;147;0;-70;1;862384805
-21.612436;0.98576;0.066368;-0.003904;126;-28;-77;1;862416424
-21.593910;0.982831936;0.060512;-0.010736;91;-28;-49;1;862434950
-21.582765;0.981856;0.061488;-0.012688;84;-21;-42;1;862446095
-21.558887;0.984784;0.05368;-0.008784;0;7;-28;1;862469973
-21.546816;0.982831936;0.050752;-0.005856;-21;14;-28;1;862482044
-21.523860;0.980879936;0.047824;-0.000976;0;14;-56;1;862505000
-21.510394;0.982831936;0.049776;-0.002928;70;7;-63;1;862518466
-21.499465;0.98576;0.0488;-0.001952;133;-7;-70;1;862529395
-21.487898;0.983808;0.059536;-0.005856;77;-21;-91;1;862540962
-21.475362;0.984784;0.061488;-0.00976;98;-14;-91;1;862553498
-21.437868;0.98576;0.066368;-0.013664;21;14;-56;1;862590992
-21.420739;0.982831936;0.065392;-0.00976;-14;21;-42;1;862608121
-21.409763;0.983808;0.061488;-0.005856;-21;35;-21;1;862619097
-21.387790;0.984784;0.060512;-0.001952;-70;14;-14;1;862641070
-21.376878;0.984784;0.052704;0.0;-35;7;-7;1;862651982
-21.355160;0.984784;0.045872;-0.007808;7;-14;-21;1;862673700
-21.342149;0.983808;0.050752;-0.010736;21;-14;-42;1;862686711
-21.323890;0.984784;0.056608;-0.01464;105;7;-56;1;862704970
-21.312396;0.982831936;0.061488;-0.010736;70;14;-49;1;862716464
-21.284031;0.981856;0.062464;-0.00488;42;28;-28;1;862744829
-21.263929;0.982831936;0.066368;-0.001952;-35;28;-21;1;862764931
-21.244965;0.983808;0.061488;0.002928;-56;7;14;1;862783895
-21.230556;0.983808;0.052704;0.005856;-63;-21;14;1;862798304
-21.213627;0.983808;0.045872;-0.00976;-7;-35;-7;1;862815233
-21.201953;0.983808;0.045872;-0.00976;56;-28;-21;1;862826907
-21.182510;0.986736;0.051728;-0.011712;49;-21;-63;1;862846350
-21.169155;0.986736;0.051728;-0.011712;91;0;-63;1;862859705
-21.147658;0.984784;0.057584;-0.00976;77;14;-70;1;862881202
-21.133977;0.982831936;0.064416;-0.006832;112;14;-56;1;862894883
-21.121219;0.98576;0.060512;-0.000976;77;0;-49;1;862907641
-21.104021;0.984784;0.060512;-0.001952;42;-7;-42;1;862924839
-21.092373;0.982831936;0.056608;-0.000976;21;-14;-42;1;862936487
-21.081878;0.982831936;0.056608;-0.003904;21;-28;-42;1;862946982
-21.066921;0.982831936;0.052704;-0.002928;63;-35;-35;1;862961939
-21.055817;0.98771196;0.050752;-0.013664;21;-28;-56;1;862973043
-21.041393;0.984784;0.050752;-0.016592;56;-14;-63;1;862987467
-21.029363;0.983808;0.049776;-0.012688;126;0;-63;1;862999497
-21.019083;0.981856;0.052704;-0.01464;126;7;-77;1;863009777
-21.002438;0.98576;0.062464;-0.00488;98;14;-77;1;863026422
-20.988656;0.983808;0.061488;-0.007808;70;21;-70;1;863040204
-20.972525;0.983808;0.062464;-0.000976;70;7;-49;1;863056335
-20.960131;0.981856;0.066368;-0.000976;70;0;-49;1;863068729
-20.920755;0.98576;0.05368;-0.008784;-28;-14;-14;1;863108105
-20.908297;0.984784;0.056608;-0.012688;-70;-14;-21;1;863120563
-20.890175;0.98576;0.055632;-0.011712;28;7;-28;1;863138685
-20.878656;0.982831936;0.054656;-0.00976;-7;14;-35;1;863150204
-20.857050;0.981856;0.062464;-0.005856;28;28;-28;1;863171810
-20.843968;0.980879936;0.056608;-0.000976;7;14;-28;1;863184892
-20.831160;0.981856;0.055632;-0.003904;14;14;-28;1;863197700
-20.819781;0.981856;0.056608;-0.002928;7;14;-28;1;863209079
-20.808224;0.983808;0.060512;-0.00488;-14;7;-28;1;863220636
-20.797447;0.98576;0.060512;-0.000976;-21;0;-14;1;863231413
-20.786233;0.982831936;0.060512;-0.002928;-28;-14;-14;1;863242627
-20.770228;0.98576;0.057584;;1.7639999;0.294;-0.049;1;863258632
-20.752445;0.982831936;0.051728;-0.015616;-35;7;-7;1;863276415
-20.739766;0.983808;0.051728;-0.010736;-14;21;-14;1;863289094
-20.722538;0.981856;0.050752;-0.005856;-7;28;-42;1;863306322
-20.710152;0.983808;0.051728;0.0;49;28;-49;1;863318708
-20.693280;0.982831936;0.059536;0.0;35;7;-49;1;863335580
-20.681120;0.983808;0.054656;-0.000976;21;0;-49;1;863347740
-20.653596;0.984784;0.05856;-0.006832;84;-21;-42;1;863375264
-20.641361;0.982831936;0.054656;-0.011712;63;-21;-56;1;863387499
-20.630021;0.983808;0.059536;-0.010736;77;-14;-49;1;863398839
-20.617042;0.98576;0.056608;-0.011712;21;-14;-42;1;863411818
-20.593568;0.984784;0.050752;-0.00976;63;7;-42;1;863435292
-20.579911;0.98576;0.052704;-0.005856;56;14;-70;1;863448949
-20.564999;0.98576;0.05368;-0.00488;98;21;-77;1;863463861
-20.553537;0.984784;0.05856;-0.001952;119;7;-70;1;863475323
-20.532000;0.982831936;0.062464;-0.003904;119;-21;-84;1;863496860
-20.519730;0.984784;0.059536;-0.006832;105;-28;-84;1;863509130
-20.508750;0.986736;0.064416;-0.010736;126;-28;-70;1;863520110
-20.490574;0.982831936;0.054656;-0.010736;56;-21;-63;1;863538286
-20.478966;0.983808;0.056608;-0.015616;0;-14;-63;1;863549894
-20.464155;0.98576;0.05856;-0.012688;63;7;-35;1;863564705
-20.431821;0.983808;0.055632;-0.003904;-14;21;-56;1;863597039
-20.413956;0.980879936;0.056608;0.002928;49;7;-42;1;863614904
-20.384747;0.982831936;0.05856;-0.00488;91;-28;-35;1;863644113
-20.349310;0.982831936;0.061488;-0.015616;0;0;-28;1;863679550
-20.323999;0.98576;0.059536;-0.010736;-7;21;-14;1;863704861
-20.303915;0.984784;0.060512;-0.003904;-35;28;-14;1;863724945
-20.288868;0.988688;0.052704;0.000976;-35;7;-7;1;863739992
-20.278021;0.983808;0.055632;-0.002928;-35;-7;-7;1;863750839
-20.266126;0.981856;0.052704;-0.000976;-7;-14;-21;1;863762734
-20.244026;0.982831936;0.055632;-0.006832;21;-21;-21;1;863784834
-20.229504;0.98576;0.054656;-0.013664;28;-14;-28;1;863799356
-20.218716;0.986736;0.049776;-0.017568;42;0;-28;1;863810144
-20.208010;0.983808;0.049776;-0.01464;35;7;-35;1;863820850
-20.196895;0.981856;0.05368;-0.013664;35;28;-42;1;863831965
-20.184959;0.983808;0.05856;-0.008784;35;35;-42;1;863843901
-20.173771;0.981856;0.055632;-0.001952;21;42;-49;1;863855089
-20.162955;0.982831936;0.05856;0.001952;14;35;-49;1;863865905
-20.123908;0.98771196;0.055632;-0.001952;63;-35;-28;1;863904952
-20.090973;0.98771196;0.049776;-0.01464;56;-21;-49;1;863937887
-20.072263;0.98576;0.051728;-0.01464;42;7;-77;1;863956597
-20.056666;0.984784;0.062464;-0.003904;112;28;-84;1;863972194
-20.031827;0.986736;0.060512;0.000976;91;14;-70;1;863997033
-20.013944;0.981856;0.059536;0.001952;112;-7;-56;1;864014916
-20.001414;0.983808;0.05856;-0.000976;91;-21;-49;1;864027446
-19.982678;0.98576;0.059536;-0.005856;56;-35;-49;1;864046182
-19.958641;0.981856;0.05856;-0.010736;35;-28;-42;1;864070219
-19.946177;0.981856;0.05856;-0.011712;70;-14;-35;1;864082683
-19.924005;0.984784;0.05856;-0.011712;56;7;-42;1;864104855
-19.883227;0.982831936;0.061488;-0.000976;7;7;-42;1;864145633
-19.863667;0.984784;0.060512;-0.000976;49;-21;-21;1;864165193
-19.848662;0.984784;0.063439992;-0.002928;7;-28;-21;1;864180198
-19.820273;0.98576;0.055632;-0.016592;21;-21;-7;1;864208587
-19.807619;0.98771196;0.051728;-0.018544;-21;-7;-14;1;864221241
-19.789267;0.98576;0.05368;-0.011712;-7;42;-28;1;864239593
-19.773932;0.984784;0.055632;-0.00488;-28;42;-28;1;864254928
-19.762597;0.982831936;0.055632;-0.001952;-21;35;-28;1;864266263
-19.742366;0.980879936;0.056608;0.0;42;7;-21;1;864286494
-19.727837;0.98576;0.055632;0.001952;35;0;-21;1;864301023
-19.714027;0.98576;0.054656;-0.005856;-28;-21;-28;1;864314833
-19.683975;0.982831936;0.054656;-0.011712;7;0;-35;1;864344885
-19.672808;0.984784;0.054656;-0.013664;35;21;-42;1;864356052
-19.661949;0.981856;0.055632;-0.008784;35;28;-42;1;864366911
-19.650892;0.983808;0.055632;-0.008784;21;28;-42;1;864377968
-19.634024;0.982831936;0.05368;-0.002928;21;35;-49;1;864394836
-19.622819;0.980879936;0.05368;0.000976;0;28;-63;1;864406041
-19.604016;0.982831936;0.060512;0.005856;77;0;-63;1;864424844
-19.592507;0.984784;0.060512;0.003904;70;-28;-56;1;864436353
-19.580501;0.982831936;0.061488;0.0;77;-35;-49;1;864448359
-19.561077;0.982831936;0.055632;-0.012688;84;-35;-42;1;864467783
-19.548497;0.98576;0.056608;-0.01464;63;-28;-42;1;864480363
-19.534018;0.98576;0.05368;-0.011712;63;7;-56;1;864494842
-19.522467;0.984784;0.056608;-0.006832;28;14;-63;1;864506393
-19.504017;0.98576;0.060512;0.0;91;28;-56;1;864524843
-19.492863;0.982831936;0.061488;0.003904;84;7;-56;1;864535997
-19.481995;0.982831936;0.061488;0.000976;70;-14;-56;1;864546865
-19.470899;0.986736;0.05856;0.001952;105;-21;-42;1;864557961
-19.458673;0.980879936;0.059536;-0.003904;105;-35;-35;1;864570187
-19.445728;0.98576;0.05856;-0.005856;77;-42;-42;1;864583132
-19.423601;0.981856;0.05856;-0.012688;28;-14;-56;1;864605259
-19.412895;0.984784;0.062464;-0.010736;28;-14;-42;1;864615965
-19.401906;0.982831936;0.061488;-0.011712;63;-7;-28;1;864626954
-19.358734;0.983808;0.057584;-0.006832;49;14;-21;1;864670126
-19.342773;0.984784;0.056608;-0.003904;0;7;-35;1;864686087
-19.331591;0.98576;0.057584;-0.002928;28;7;-35;1;864697269
-19.320401;0.984784;0.056608;-0.002928;28;-7;-35;1;864708459
-19.303536;0.98771196;0.056608;-0.003904;14;-14;-35;1;864725324
-19.291886;0.981856;0.059536;-0.011712;56;-14;-21;1;864736974
-19.280861;0.986736;0.05856;-0.015616;0;-7;-35;1;864747999
-19.258977;0.980879936;0.056608;-0.013664;14;21;-21;1;864769883
-19.247823;0.983808;0.056608;-0.007808;7;35;-21;1;864781037
-19.232185;0.984784;0.05368;-0.00488;-56;35;-42;1;864796675
-19.213980;0.982831936;0.054656;-0.000976;-14;42;-42;1;864814880
-19.200896;0.982831936;0.052704;0.002928;0;14;-35;1;864827964
-19.190007;0.983808;0.052704;-0.000976;42;0;-35;1;864838853
-19.175853;0.982831936;0.056608;-0.00488;49;-14;-42;1;864853007
-19.154020;0.980879936;0.05368;-0.010736;56;-14;-49;1;864874840
-19.133936;0.986736;0.056608;-0.00976;21;7;-56;1;864894924
-19.115144;0.982831936;0.060512;-0.005856;42;14;-49;1;864913716
-19.093888;0.986736;0.060512;0.0;28;21;-42;1;864934972
-19.081626;0.981856;0.056608;-0.000976;21;7;-42;1;864947234
-19.058449;0.984784;0.056608;0.0;42;-7;-42;1;864970411
-19.047873;0.984784;0.054656;0.001952;77;-21;-42;1;864980987
-19.032755;0.983808;0.055632;-0.00488;56;-28;-49;1;864996105
-19.012121;0.98576;0.05856;-0.010736;105;-35;-49;1;865016739
-18.999225;0.982831936;0.05856;-0.012688;77;-21;-56;1;865029635
-18.983742;0.984784;0.057584;-0.00976;77;-7;-49;1;865045118
-18.972910;0.98576;0.05856;-0.007808;84;7;-49;1;865055950
-18.946992;0.984784;0.060512;-0.00488;42;0;-35;1;865081868
-18.923040;0.983808;0.060512;-0.001952;21;-14;-21;1;865105820
-18.911108;0.983808;0.060512;0.0;35;-21;-21;1;865117752
-18.892568;0.981856;0.055632;-0.00976;35;-42;-21;1;865136292
-18.880826;0.98576;0.050752;-0.010736;42;-35;-21;1;865148034
-18.846536;0.986736;0.057584;-0.015616;42;21;-42;1;865182324
-18.831204;0.983808;0.060512;-0.011712;21;28;-42;1;865197656
-18.819418;0.981856;0.062464;-0.002928;21;35;-35;1;865209442
-18.791120;0.982831936;0.05856;0.001952;-42;14;-21;1;865237740
-18.778446;0.980879936;0.055632;-0.002928;-14;-14;-21;1;865250414
-18.754029;0.984784;0.052704;-0.00976;7;-21;-21;1;865274831
-18.742354;0.981856;0.05368;-0.011712;21;-14;-28;1;865286506
-18.722477;0.98576;0.051728;-0.018544;-14;14;-42;1;865306383
-18.710446;0.984784;0.05368;-0.016592;21;35;-42;1;865318414
-18.691058;0.98576;0.054656;-0.006832;21;56;-56;1;865337802
-18.676429;0.981856;0.056608;0.00488;49;35;-56;1;865352431
-18.662391;0.979904;0.060512;0.006832;42;21;-49;1;865366469
-18.630692;0.984784;0.05856;-0.000976;49;-35;-49;1;865398168
-18.612444;0.98576;0.054656;-0.00976;77;-35;-42;1;865416416
-18.592277;0.981856;0.055632;-0.012688;7;-7;-49;1;865436583
-18.578411;0.984784;0.055632;-0.01464;35;7;-49;1;865450449
-18.552883;0.982831936;0.057584;-0.003904;49;21;-56;1;865475977
-18.525169;0.980879936;0.059536;0.00488;63;-7;-56;1;865503691
-18.513669;0.982831936;0.060512;0.00488;70;-35;-49;1;865515191
-18.498710;0.983808;0.063439992;0.002928;105;-49;-49;1;865530150
-18.483571;0.984784;0.059536;-0.008784;98;-63;-35;1;865545289
-18.443997;0.98576;0.05856;-0.01464;77;-7;-49;1;865584863
-18.430979;0.984784;0.059536;-0.00976;77;14;-56;1;865597881
-18.412537;0.983808;0.060512;-0.002928;35;21;-49;1;865616323
-18.392181;0.983808;0.060512;0.0;35;-7;-35;1;865636679
-18.378878;0.984784;0.056608;0.0;21;-21;-35;1;865649982
-18.364529;0.983808;0.056608;-0.006832;56;-28;-28;1;865664331
-18.353989;0.979904;0.05856;-0.008784;7;-28;-28;1;865674871
-18.332517;0.98771196;0.057584;-0.018544;-7;-14;-21;1;865696343
-18.320093;0.983808;0.054656;-0.016592;-14;7;-21;1;865708767
-18.290428;0.981856;0.055632;-0.00488;14;49;-42;1;865738432
-18.274247;0.983808;0.055632;-0.001952;0;35;-42;1;865754613
-18.258863;0.981856;0.059536;-0.000976;7;28;-42;1;865769997
-18.247128;0.982831936;0.059536;0.000976;-7;14;-42;1;865781732
-18.224535;0.984784;0.059536;-0.00976;28;-21;-28;1;865804325
-18.204017;0.984784;0.056608;-0.015616;0;7;-35;1;865824843
-18.190729;0.98576;0.05856;-0.011712;0;28;-42;1;865838131
-18.179163;0.983808;0.055632;-0.00976;0;28;-42;1;865849697
-18.161291;0.982831936;0.05368;-0.003904;14;35;-42;1;865867569
-18.132729;0.984784;0.061488;0.005856;42;14;-49;1;865896131
-18.113985;0.981856;0.060512;0.0;56;-28;-42;1;865914875
-18.102681;0.984784;0.056608;-0.003904;49;-35;-42;1;865926179
-18.092088;0.983808;0.054656;-0.00976;77;-35;-42;1;865936772
-18.078754;0.982831936;0.05856;-0.012688;63;-28;-35;1;865950106
-18.066867;0.984784;0.05856;-0.008784;49;-21;-49;1;865961993
-18.051836;0.98576;0.057584;-0.008784;42;0;-49;1;865977024
-18.039558;0.983808;0.057584;-0.00488;42;7;-42;1;865989302
-18.014025;0.983808;0.05368;0.002928;77;-7;-42;1;866014835
-17.990420;0.983808;0.056608;-0.000976;91;-28;-49;1;866038440
-17.979518;0.982831936;0.05856;-0.006832;84;-35;-49;1;866049342
-17.964003;0.982831936;0.05856;-0.008784;70;-35;-49;1;866064857
-17.952000;0.983808;0.059536;-0.008784;84;-28;-42;1;866076860
-17.932480;0.983808;0.059536;-0.016592;49;-14;-35;1;866096380
-17.913846;0.983808;0.060512;-0.013664;63;7;-35;1;866115014
-17.902139;0.982831936;0.059536;-0.005856;14;21;-42;1;866126721
-17.890842;0.984784;0.056608;-0.000976;35;14;-42;1;866138018
-17.879616;0.981856;0.057584;-0.002928;35;14;-35;1;866149244
-17.867245;0.982831936;0.057584;-0.002928;14;0;-35;1;866161615
-17.843925;0.983808;0.060512;-0.003904;42;-7;-35;1;866184935
-17.807806;0.983808;0.05856;-0.017568;7;0;-35;1;866221054
-17.784244;0.984784;0.060512;-0.011712;-14;28;-35;1;866244616
-17.761796;0.981856;0.061488;-0.003904;-28;42;-28;1;866267064
-17.749424;0.982831936;0.05856;-0.002928;-14;42;-21;1;866279436
-17.734908;0.983808;0.059536;0.0;-28;35;-21;1;866293952
-17.722448;0.98576;0.057584;0.002928;-49;21;-28;1;866306412
-17.687090;0.981856;0.055632;-0.00488;42;-7;-42;1;866341770
-17.674365;0.983808;0.059536;-0.006832;42;-7;-42;1;866354495
-17.663548;0.983808;0.05856;-0.00976;21;-7;-42;1;866365312
-17.642658;0.983808;0.05856;-0.010736;42;14;-35;1;866386202
-17.631160;0.984784;0.060512;-0.003904;-14;35;-35;1;866397700
-17.618952;0.984784;0.062464;0.002928;7;28;-28;1;866409908
-17.605358;0.981856;0.056608;0.005856;14;14;-28;1;866423502
-17.594145;0.981856;0.05856;0.00488;-7;-7;-21;1;866434715
-17.581875;0.983808;0.055632;0.005856;7;-28;-28;1;866446985
-17.559666;0.983808;0.05368;-0.007808;63;-49;-35;1;866469194
-17.547659;0.98771196;0.056608;-0.011712;98;-49;-42;1;866481201
-17.524665;0.983808;0.051728;-0.015616;91;-28;-56;1;866504195
-17.513346;0.980879936;0.057584;-0.01464;70;0;-56;1;866515514
-17.491000;0.984784;0.061488;-0.006832;77;14;-49;1;866537860
-17.479080;0.980879936;0.057584;-0.000976;77;0;-42;1;866549780
-17.460529;0.982831936;0.057584;0.001952;77;-7;-42;1;866568331
-17.445716;0.983808;0.05856;-0.000976;28;-28;-42;1;866583144
-17.433010;0.980879936;0.056608;-0.000976;77;-49;-42;1;866595850
-17.413953;0.983808;0.050752;-0.013664;63;-49;-49;1;866614907
-17.393414;0.982831936;0.054656;-0.017568;98;-14;-56;1;866635446
-17.382336;0.980879936;0.056608;-0.01952;91;7;-56;1;866646524
-17.363880;0.982831936;0.059536;-0.013664;49;28;-70;1;866664980
-17.343932;0.986736;0.062464;-0.000976;42;42;-56;1;866684928
-17.291771;0.986736;0.05368;-0.005856;28;-14;-28;1;866737089
-17.277157;0.98771196;0.057584;-0.011712;7;-14;-35;1;866751703
-17.248665;0.984784;0.055632;-0.012688;21;7;-35;1;866780195
-17.233921;0.983808;0.057584;-0.011712;7;42;-42;1;866794939
-17.222813;0.981856;0.062464;-0.008784;0;56;-42;1;866806047
-17.209820;0.983808;0.066368;-0.002928;-7;63;-42;1;866819040
-17.198966;0.983808;0.063439992;0.0;-14;49;-28;1;866829894
-17.186285;0.984784;0.059536;0.003904;-42;14;-21;1;866842575
-17.173639;0.984784;0.056608;0.003904;-49;0;-14;1;866855221
-17.152539;0.980879936;0.05368;0.0;7;-21;-7;1;866876321
-17.133342;0.983808;0.052704;-0.008784;14;-35;-28;1;866895518
-17.122895;0.98576;0.05368;-0.011712;21;-21;-42;1;866905965
-17.103605;0.98576;0.054656;-0.011712;63;7;-49;1;866925255
-17.091523;0.986736;0.057584;-0.00976;56;7;-56;1;866937337
-17.080559;0.981856;0.05856;-0.002928;63;14;-63;1;866948301
-17.066277;0.981856;0.064416;-0.001952;42;7;-56;1;866962583
-17.055869;0.979904;0.062464;0.000976;63;-7;-49;1;866972991
-17.044317;0.982831936;0.05856;0.00488;91;-28;-35;1;866984543
-17.023372;0.982831936;0.060512;-0.005856;49;-49;-35;1;867005488
-17.012956;0.983808;0.057584;-0.011712;49;-42;-35;1;867015904
-17.000298;0.98576;0.052704;-0.016592;49;-35;-28;1;867028562
-16.988697;0.984784;0.047824;-0.011712;56;-21;-42;1;867040163
-16.978142;0.98771196;0.0488;-0.012688;105;-14;-49;1;867050718
-16.964954;0.981856;0.055632;-0.011712;105;0;-84;1;867063906
-16.953074;0.982831936;0.056608;-0.005856;140;0;-77;1;867075786
-16.936427;0.981856;0.05856;-0.003904;168;7;-77;1;867092433
-16.923608;0.981856;0.059536;-0.001952;119;-21;-91;1;867105252
-16.911413;0.982831936;0.062464;-0.003904;126;-35;-84;1;867117447
-16.899438;0.982831936;0.065392;-0.006832;147;-35;-63;1;867129422
-16.883226;0.984784;0.063439992;-0.012688;77;-28;-49;1;867145634
-16.872770;0.984784;0.062464;-0.015616;7;-21;-42;1;867156090
-16.861844;0.98771196;0.059536;-0.016592;0;-7;-42;1;867167016
-16.850451;0.983808;0.056608;-0.015616;28;7;-35;1;867178409
-16.839633;0.984784;0.056608;-0.01464;14;28;-35;1;867189227
-16.814031;0.979904;0.05856;0.001952;7;42;-42;1;867214829
-16.755282;0.98576;0.061488;-0.005856;21;-7;-35;1;867273578
-16.733894;0.986736;0.057584;-0.012688;-21;7;-28;1;867294966
-16.722870;0.983808;0.059536;-0.013664;-28;21;-28;1;867305990
-16.704114;0.98576;0.056608;-0.006832;-28;35;-14;1;867324746
-16.692167;0.981856;0.055632;-0.00488;-28;42;-21;1;867336693
-16.681068;0.98576;0.057584;-0.000976;-21;42;-28;1;867347792
-16.666050;0.986736;0.056608;0.0;-14;35;-28;1;867362810
-16.630915;0.982831936;0.056608;-0.001952;0;-14;-14;1;867397945
-16.613642;0.982831936;0.05368;-0.007808;14;-21;-28;1;867415218
-16.591964;0.98576;0.052704;-0.00976;49;-14;-35;1;867436896
-16.580623;0.98576;0.057584;-0.006832;35;0;-42;1;867448237
-16.563968;0.983808;0.05368;-0.006832;42;0;-49;1;867464892
-16.546046;0.984784;0.055632;0.0;77;0;-49;1;867482814
-16.525712;0.983808;0.056608;0.001952;98;-21;-56;1;867503148
-16.506648;0.986736;0.056608;-0.002928;98;-42;-56;1;867522212
-16.492586;0.980879936;0.055632;-0.00976;105;-49;-56;1;867536274
-16.482020;0.982831936;0.056608;-0.012688;105;-42;-56;1;867546840
-16.454056;0.982831936;0.055632;-0.01464;119;-21;-63;1;867574804
-16.440747;0.98576;0.055632;-0.00976;84;0;-70;1;867588113
-16.429940;0.983808;0.055632;-0.005856;98;7;-77;1;867598920
-16.413917;0.981856;0.061488;-0.005856;105;7;-70;1;867614943
-16.387891;0.984784;0.063439992;-0.001952;84;-7;-70;1;867640969
-16.376355;0.983808;0.060512;-0.002928;91;-21;-63;1;867652505
-16.364210;0.981856;0.059536;-0.005856;77;-28;-63;1;867664650
-16.332034;0.983808;0.059536;-0.013664;49;-21;-49;1;867696826
-16.312290;0.984784;0.061488;-0.013664;35;7;-42;1;867716570
-16.300040;0.981856;0.062464;-0.00976;14;28;-42;1;867728820
-16.288856;0.983808;0.062464;-0.007808;0;35;-42;1;867740004
-16.277854;0.986736;0.064416;-0.003904;-7;42;-35;1;867751006
-16.246057;0.982831936;0.060512;-0.002928;-21;14;-14;1;867782803
-16.225589;0.984784;0.059536;-0.003904;-28;0;-14;1;867803271
-16.211100;0.983808;0.05856;-0.00488;-28;-7;-7;1;867817760
-16.191890;0.98576;0.056608;-0.008784;-28;0;-14;1;867836970
-16.180031;0.983808;0.05368;-0.011712;-21;14;-14;1;867848829
-16.163955;0.984784;0.057584;-0.00976;0;28;-14;1;867864905
-16.152322;0.984784;0.057584;-0.006832;-14;28;-21;1;867876538
-16.134049;0.98771196;0.059536;-0.000976;-21;21;-21;1;867894811
-16.118223;0.983808;0.057584;0.001952;7;7;-14;1;867910637
-16.107780;0.983808;0.05856;0.0;7;-7;-14;1;867921080
-16.096945;0.983808;0.057584;-0.000976;0;-14;-14;1;867931915
-16.085835;0.98576;0.052704;-0.00488;0;-21;-21;1;867943025
-16.074749;0.98576;0.056608;-0.00488;21;-28;-21;1;867954111
-16.063928;0.983808;0.05368;-0.007808;42;-28;-21;1;867964932
-16.047248;0.982831936;0.055632;-0.011712;56;-14;-49;1;867981612
-16.024006;0.982831936;0.054656;-0.006832;98;-7;-56;1;868004854
-16.012392;0.981856;0.05368;-0.00488;98;-7;-56;1;868016468
-15.998709;0.983808;0.05856;-0.002928;98;-7;-63;1;868030151
-15.985683;0.98576;0.059536;-0.00488;98;-14;-63;1;868043177
-15.972701;0.986736;0.060512;-0.00488;105;-14;-63;1;868056159
-15.957605;0.981856;0.056608;-0.006832;84;-21;-49;1;868071255
-15.942442;0.981856;0.057584;-0.006832;63;-21;-49;1;868086418
-15.922350;0.984784;0.05368;-0.008784;70;-21;-49;1;868106510
-15.907724;0.984784;0.057584;-0.00976;77;-14;-56;1;868121136
-15.896920;0.984784;0.052704;-0.008784;77;-14;-63;1;868131940
-15.885781;0.981856;0.056608;-0.00976;98;-14;-63;1;868143079
-15.874498;0.982831936;0.055632;-0.007808;119;-14;-63;1;868154362
-15.861690;0.982831936;0.059536;-0.006832;105;-7;-70;1;868167170
-15.850880;0.980879936;0.060512;-0.007808;84;-7;-70;1;868177980
-15.838589;0.984784;0.061488;-0.00976;77;0;-63;1;868190271
-15.822577;0.982831936;0.064416;-0.00976;42;0;-49;1;868206283
-15.802258;0.98576;0.064416;-0.012688;0;14;-21;1;868226602
-15.787034;0.983808;0.060512;-0.006832;-63;21;-7;1;868241826
-15.773555;0.984784;0.057584;-0.00488;-63;21;-7;1;868255305
-15.732701;0.981856;0.054656;-0.003904;-7;7;-28;1;868296159
-15.718327;0.98576;0.05368;-0.002928;14;0;-28;1;868310533
-15.705508;0.981856;0.059536;-0.008784;56;-7;-35;1;868323352
-15.693341;0.984784;0.062464;-0.010736;56;0;-35;1;868335519
-15.682490;0.982831936;0.065392;-0.013664;21;7;-35;1;868346370
-15.666640;0.986736;0.067343992;-0.012688;-49;35;-7;1;868362220
-15.656119;0.98576;0.064416;-0.00976;-91;42;7;1;868372741
-15.644375;0.98576;0.060512;-0.00488;-119;35;14;1;868384485
-15.615505;0.983808;0.049776;0.00488;-77;14;7;1;868413355
-15.599884;0.982831936;0.045872;0.002928;-42;7;-7;1;868428976
-15.588140;0.983808;0.04392;0.003904;7;-14;-21;1;868440720
-15.576185;0.982831936;0.046848;-0.006832;98;-35;-56;1;868452675
-15.563694;0.982831936;0.054656;-0.012688;119;-28;-77;1;868465166
-15.551477;0.983808;0.054656;-0.012688;140;-21;-84;1;868477383
-15.539555;0.982831936;0.060512;-0.013664;147;-7;-84;1;868489305
-15.527339;0.98576;0.063439992;-0.013664;112;0;-77;1;868501521
-15.515739;0.982831936;0.066368;-0.008784;63;21;-56;1;868513121
-15.504091;0.984784;0.066368;-0.002928;35;21;-35;1;868524769
-15.465105;0.984784;0.049776;-0.000976;7;-21;-28;1;868563755
-15.452726;0.98576;0.047824;-0.003904;35;-28;-35;1;868576134
-15.438823;0.981856;0.04392;-0.005856;77;-35;-49;1;868590037
-15.427830;0.984784;0.050752;-0.011712;119;-35;-70;1;868601030
-15.412386;0.984784;0.055632;-0.012688;161;-21;-91;1;868616474
-15.399273;0.983808;0.05856;-0.011712;161;-7;-91;1;868629587
-15.381844;0.984784;0.065392;-0.008784;140;7;-91;1;868647016
-15.371068;0.982831936;0.070272;-0.00488;126;7;-70;1;868657792
-15.359150;0.984784;0.069296;-0.001952;84;7;-56;1;868669710
-15.341697;0.982831936;0.069296;-0.002928;-7;-7;-21;1;868687163
-15.289620;0.983808;0.049776;-0.012688;7;-7;-21;1;868739240
-15.263430;0.98576;0.05856;-0.011712;63;21;-49;1;868765430
-15.243940;0.984784;0.062464;-0.006832;56;28;-49;1;868784920
-15.232833;0.98576;0.063439992;-0.000976;28;21;-35;1;868796027
-15.221675;0.981856;0.065392;-0.002928;21;14;-21;1;868807185
-15.191746;0.980879936;0.064416;-0.001952;-49;-7;0;1;868837114
-15.179070;0.983808;0.060512;-0.007808;-63;-7;14;1;868849790
-15.166227;0.986736;0.055632;-0.010736;-70;0;14;1;868862633
-15.144010;0.983808;0.0488;-0.013664;-63;14;7;1;868884850
-15.123999;0.98576;0.047824;-0.007808;-21;28;-21;1;868904861
-15.112641;0.986736;0.054656;0.0;28;28;-42;1;868916219
-15.101709;0.982831936;0.05856;0.002928;21;14;-49;1;868927151
-15.091026;0.98576;0.059536;0.000976;35;0;-49;1;868937834
-15.077908;0.981856;0.057584;-0.001952;56;-7;-42;1;868950952
-15.064802;0.984784;0.059536;-0.006832;56;-7;-35;1;868964058
-15.053833;0.98576;0.061488;-0.008784;35;-7;-35;1;868975027
-15.042896;0.983808;0.061488;-0.013664;7;-7;-28;1;868985964
-15.026008;0.983808;0.057584;-0.010736;-56;7;-14;1;869002852
-15.012881;0.981856;0.052704;-0.007808;-49;7;-14;1;869015979
-15.001939;0.982831936;0.047824;-0.001952;7;14;-35;1;869026921
-14.991057;0.988688;0.04392;-0.000976;21;7;-49;1;869037803
-14.979951;0.98576;0.0488;-0.003904;63;0;-63;1;869048909
-14.965529;0.982831936;0.046848;-0.005856;105;-14;-63;1;869063331
-14.951061;0.98576;0.054656;-0.007808;119;-14;-84;1;869077799
-14.940055;0.98576;0.062464;-0.00976;119;-14;-84;1;869088805
-14.927268;0.983808;0.063439992;-0.008784;133;-7;-77;1;869101592
-14.915758;0.981856;0.064416;-0.007808;133;0;-63;1;869113102
-14.893934;0.983808;0.064416;-0.006832;77;-7;-49;1;869134926
-14.882895;0.983808;0.064416;-0.005856;42;-7;-42;1;869145965
-14.871545;0.981856;0.061488;-0.008784;28;-7;-35;1;869157315
-14.858461;0.983808;0.05856;-0.005856;-7;-14;-28;1;869170399
-14.834037;0.98576;0.052704;-0.010736;56;-7;-21;1;869194823
-14.800749;0.982831936;0.051728;-0.008784;56;7;-49;1;869228111
-14.786939;0.984784;0.054656;-0.005856;84;7;-63;1;869241921
-14.774247;0.984784;0.05856;-0.006832;56;7;-70;1;869254613
-14.762834;0.983808;0.059536;-0.003904;84;7;-70;1;869266026
-14.751967;0.984784;0.066368;-0.001952;112;7;-56;1;869276893
-14.739271;0.984784;0.06832;-0.005856;-14;-7;-35;1;869289589
-14.727674;0.982831936;0.066368;-0.007808;-42;-7;-28;1;869301186
-14.713444;0.986736;0.061488;-0.007808;-14;-7;-7;1;869315416
-14.692014;0.983808;0.057584;-0.013664;-28;0;-14;1;869336846
-14.680043;0.981856;0.056608;-0.010736;-77;7;-21;1;869348817
-14.658080;0.984784;0.051728;-0.00488;21;35;-35;1;869370780
-14.643489;0.983808;0.052704;-0.002928;0;35;-56;1;869385371
-14.631813;0.981856;0.055632;0.0;35;28;-56;1;869397047
-14.610905;0.984784;0.062464;0.0;70;0;-42;1;869417955
-14.592042;0.986736;0.059536;-0.003904;35;-7;-49;1;869436818
-14.579516;0.983808;0.064416;-0.008784;42;-7;-42;1;869449344
-14.552664;0.984784;0.059536;-0.011712;-28;7;-7;1;869476196
-14.527455;0.983808;0.05368;-0.002928;-14;21;-28;1;869501405
-14.511643;0.981856;0.050752;0.0;14;14;-35;1;869517217
-14.492406;0.983808;0.0488;0.002928;56;0;-49;1;869536454
-14.480880;0.983808;0.05368;-0.000976;84;-14;-63;1;869547980
-14.462225;0.983808;0.055632;-0.007808;133;-35;-70;1;869566635
-14.448534;0.98576;0.062464;-0.007808;161;-28;-63;1;869580326
-14.427178;0.983808;0.066368;-0.013664;42;-7;-49;1;869601682
-14.415170;0.984784;0.061488;-0.013664;56;7;-35;1;869613690
-14.401670;0.986736;0.059536;-0.007808;35;21;-35;1;869627190
-14.390380;0.984784;0.057584;-0.00488;0;14;-35;1;869638480
-14.378010;0.981856;0.059536;-0.002928;0;14;-35;1;869650850
-14.366932;0.982831936;0.054656;0.000976;28;-7;-28;1;869661928
-14.353059;0.98576;0.0488;0.0;49;-21;-42;1;869675801
-14.335446;0.983808;0.057584;-0.006832;77;-35;-63;1;869693414
-14.321746;0.98576;0.054656;-0.007808;98;-28;-56;1;869707114
-14.302496;0.984784;0.061488;-0.012688;63;-21;-56;1;869726364
-14.260884;0.983808;0.063439992;-0.011712;49;28;-35;1;869767976
-14.245117;0.97892796;0.061488;0.0;-42;35;-28;1;869783743
-14.229703;0.981856;0.060512;0.002928;-42;21;-14;1;869799157
-14.212229;0.984784;0.057584;0.002928;0;-14;-14;1;869816631
-14.189365;0.980879936;0.051728;-0.005856;21;-21;-28;1;869839495
-14.178437;0.984784;0.054656;-0.007808;35;-28;-35;1;869850423
-14.162425;0.986736;0.054656;-0.016592;28;0;-42;1;869866435
-14.148559;0.981856;0.059536;-0.01464;21;21;-49;1;869880301
-14.132628;0.983808;0.064416;-0.008784;28;42;-42;1;869896232
-14.120970;0.981856;0.064416;-0.000976;-21;42;-35;1;869907890
-14.102498;0.980879936;0.059536;0.002928;-28;21;-14;1;869926362
-14.090267;0.984784;0.056608;0.00488;-35;0;-14;1;869938593
-14.079253;0.983808;0.052704;0.002928;-35;-14;-14;1;869949607
-14.065739;0.983808;0.054656;-0.00488;-14;-28;-14;1;869963121
-14.052457;0.982831936;0.047824;-0.011712;14;-28;-21;1;869976403
-14.041403;0.98576;0.051728;-0.011712;21;-14;-35;1;869987457
-14.024712;0.984784;0.054656;-0.016592;56;14;-63;1;870004148
-14.014080;0.984784;0.056608;-0.011712;84;28;-63;1;870014780
-13.999640;0.988688;0.062464;-0.006832;98;35;-63;1;870029220
-13.986352;0.984784;0.062464;-0.00488;84;35;-63;1;870042508
-13.973122;0.988688;0.065392;0.00488;42;14;-49;1;870055738
-13.961864;0.98771196;0.063439992;0.00488;42;-7;-35;1;870066996
-13.950495;0.984784;0.05856;0.001952;7;-28;-35;1;870078365
-13.940112;0.983808;0.059536;-0.001952;7;-35;-28;1;870088748
-13.920593;0.983808;0.055632;-0.012688;56;-42;-14;1;870108267
-13.903551;0.986736;0.049776;-0.015616;28;-21;-42;1;870125309
-13.890327;0.98576;0.05368;-0.017568;70;0;-49;1;870138533
-13.879790;0.984784;0.054656;-0.012688;91;14;-56;1;870149070
-13.868824;0.984784;0.050752;-0.010736;91;21;-70;1;870160036
-13.853969;0.984784;0.056608;0.0;105;28;-84;1;870174891
-13.841442;0.986736;0.066368;0.001952;84;7;-70;1;870187418
-13.822162;0.984784;0.067343992;0.000976;63;-21;-49;1;870206698
-13.809821;0.98576;0.064416;-0.00488;35;-42;-35;1;870219039
-13.784501;0.986736;0.05856;-0.012688;42;-42;-14;1;870244359
-13.766533;0.981856;0.051728;-0.018544;-21;-14;-21;1;870262327
-13.754764;0.986736;0.052704;-0.017568;14;7;-28;1;870274096
-13.743658;0.98576;0.05368;-0.012688;14;21;-42;1;870285202
-13.729594;0.981856;0.056608;-0.002928;49;35;-56;1;870299266
-13.716009;0.983808;0.056608;0.000976;84;35;-56;1;870312851
-13.693951;0.98576;0.061488;0.0;42;14;-63;1;870334909
-13.683007;0.981856;0.062464;0.003904;70;-7;-49;1;870345853
-13.668102;0.982831936;0.061488;-0.002928;49;-35;-35;1;870360758
-13.655425;0.983808;0.063439992;-0.00976;21;-35;-21;1;870373435
-13.629579;0.984784;0.0488;-0.020496;21;-7;-14;1;870399281
-13.597970;0.98576;0.054656;-0.006832;7;42;-49;1;870430890
-13.582450;0.981856;0.051728;-0.001952;49;49;-49;1;870446410
-13.553593;0.983808;0.055632;0.00488;77;-7;-56;1;870475267
-13.534013;0.984784;0.061488;-0.002928;98;-35;-49;1;870494847
-13.516363;0.98576;0.059536;-0.013664;28;-42;-49;1;870512497
-13.505876;0.984784;0.059536;-0.016592;21;-28;-42;1;870522984
-13.494903;0.98576;0.060512;-0.015616;28;-14;-35;1;870533957
-13.484093;0.98576;0.059536;-0.01464;21;0;-35;1;870544767
-13.471058;0.984784;0.05856;-0.007808;7;28;-28;1;870557802
-13.453319;0.98576;0.060512;-0.00488;7;28;-35;1;870575541
-13.442264;0.982831936;0.052704;0.0;-7;21;-42;1;870586596
-13.421541;0.984784;0.05368;0.003904;91;0;-49;1;870607319
-13.410788;0.982831936;0.060512;0.001952;98;-21;-56;1;870618072
-13.397800;0.983808;0.05856;-0.003904;56;-49;-56;1;870631060
-13.387102;0.982831936;0.062464;-0.00976;105;-42;-42;1;870641758
-13.370786;0.98576;0.059536;-0.011712;98;-42;-42;1;870658074
-13.360155;0.981856;0.060512;-0.016592;56;-7;-49;1;870668705
-13.340737;0.981856;0.055632;-0.016592;49;14;-35;1;870688123
-13.329316;0.98576;0.054656;-0.010736;0;35;-28;1;870699544
-13.287281;0.984784;0.054656;0.00488;70;-7;-28;1;870741579
-13.273760;0.98771196;0.05368;-0.000976;28;-28;-35;1;870755100
-13.257628;0.983808;0.055632;-0.00976;63;-42;-42;1;870771232
-13.233900;0.98576;0.055632;-0.016592;77;-21;-49;1;870794960
-13.220079;0.98576;0.060512;-0.017568;42;-7;-56;1;870808781
-13.204011;0.986736;0.064416;-0.016592;7;28;-35;1;870824849
-13.192843;0.984784;0.060512;-0.00976;-35;42;-28;1;870836017
-13.172082;0.983808;0.060512;0.0;-35;35;-21;1;870856778
-13.160716;0.984784;0.057584;0.00488;-21;21;-14;1;870868144
-13.143994;0.983808;0.05368;0.000976;-7;-14;-14;1;870884866
-13.132729;0.980879936;0.050752;-0.005856;-7;-28;-21;1;870896131
-13.114011;0.986736;0.052704;-0.01464;42;-21;-35;1;870914849
-13.083977;0.984784;0.054656;-0.008784;56;21;-49;1;870944883
-13.058087;0.984784;0.062464;-0.000976;49;21;-56;1;870970773
-13.047047;0.980879936;0.063439992;-0.002928;77;14;-42;1;870981813
-13.033207;0.981856;0.064416;-0.001952;42;7;-35;1;870995653
-13.019879;0.983808;0.062464;-0.002928;-7;-7;-42;1;871008981
-13.007830;0.986736;0.056608;-0.005856;0;-14;-35;1;871021030
-12.996800;0.98576;0.051728;-0.007808;35;-14;-21;2;871032060
-12.983854;0.986736;0.054656;-0.00976;7;-14;-42;1;871045006
-12.964002;0.980879936;0.051728;-0.00976;84;7;-49;1;871064858
-12.952768;0.980879936;0.051728;-0.00976;126;7;-49;1;871076092
-12.928919;0.982831936;0.055632;-0.005856;77;0;-84;1;871099941
-12.917685;0.979904;0.061488;-0.003904;77;0;-84;1;871111175
-12.906808;0.983808;0.062464;-0.001952;133;-14;-63;1;871122052
-12.884399;0.983808;0.064416;-0.002928;42;-21;-56;1;871144461
-12.873996;0.981856;0.062464;-0.005856;35;-28;-49;1;871154864
-12.862890;0.981856;0.056608;-0.00976;56;-28;-35;1;871165970
-12.823925;0.982831936;0.051728;-0.008784;91;-21;-70;1;871204935
-12.777266;0.981856;0.059536;-0.007808;98;0;-84;1;871251594
-12.763485;0.982831936;0.069296;-0.006832;77;-7;-56;1;871265375
-12.749704;0.980879936;0.070272;-0.005856;91;0;-35;1;871279156
-12.738030;0.98576;0.069296;-0.005856;35;-7;-21;1;871290830
-12.714003;0.98576;0.054656;-0.008784;14;-14;-7;1;871314857
-12.702861;0.98576;0.046848;-0.00976;28;-21;-7;1;871325999
-12.692044;0.982831936;0.040992;-0.006832;14;-14;-35;1;871336816
-12.680217;0.983808;0.045872;-0.007808;14;-7;-63;1;871348643
-12.663983;0.981856;0.052704;-0.005856;126;-14;-70;1;871364877
-12.650849;0.979904;0.061488;-0.00488;168;-14;-70;1;871378011
-12.639712;0.984784;0.06832;-0.010736;126;-14;-77;1;871389148
-12.623990;0.982831936;0.072224;-0.011712;91;-7;-42;1;871404870
-12.607095;0.986736;0.071247992;-0.01464;91;-7;-14;1;871421765
-12.583869;0.983808;0.060512;-0.007808;-91;21;7;1;871444991
-12.563914;0.98576;0.045872;-0.005856;-63;14;14;1;871464946
-12.551167;0.983808;0.041968;-0.00488;-28;14;-7;1;871477693
-12.533357;0.98576;0.049776;-0.00488;14;7;-42;1;871495503
-12.518228;0.984784;0.05368;-0.005856;42;0;-49;1;871510632
-12.504917;0.982831936;0.054656;-0.00488;98;0;-49;1;871523943
-12.494046;0.982831936;0.062464;-0.005856;63;-7;-70;1;871534814
-12.482492;0.983808;0.065392;-0.010736;35;-7;-56;1;871546368
-12.464000;0.984784;0.067343992;-0.00976;21;-7;-42;1;871564860
-12.443985;0.983808;0.064416;-0.010736;-21;7;-7;1;871584875
-12.431804;0.984784;0.061488;-0.013664;-91;14;0;1;871597056
-12.414047;0.986736;0.055632;-0.010736;-98;21;0;1;871614813
-12.393895;0.982831936;0.047824;-0.005856;-77;28;-7;1;871634965
-12.380485;0.982831936;0.047824;-0.001952;-28;21;-42;1;871648375
-12.363602;0.982831936;0.050752;0.001952;77;7;-49;1;871665258
-12.343962;0.981856;0.05368;0.001952;84;-28;-77;1;871684898
-12.331740;0.983808;0.061488;-0.011712;112;-35;-70;1;871697120
-12.314040;0.98576;0.063439992;-0.015616;105;-21;-63;1;871714820
-12.302552;0.986736;0.06832;-0.01952;49;14;-42;1;871726308
-12.291947;0.984784;0.06832;-0.013664;-14;28;-21;1;871736913
-12.248349;0.983808;0.049776;0.005856;-91;28;0;1;871780511
-12.227903;0.982831936;0.045872;0.010736;28;-14;-21;1;871800957
-12.213909;0.984784;0.044896;0.005856;56;-35;-42;1;871814951
-12.188939;0.982831936;0.055632;-0.010736;224;-63;-84;1;871839921
-12.175037;0.986736;0.059536;-0.021472;224;-56;-84;1;871853823
-12.156716;0.98576;0.070272;-0.0244;154;7;-63;1;871872144
-12.145767;0.986736;0.075151992;-0.022448;63;28;-49;1;871883093
-12.132852;0.984784;0.075151992;-0.015616;-21;56;-28;1;871896008
-12.118609;0.98576;0.066368;0.000976;-105;63;14;1;871910251
-12.108110;0.981856;0.060512;0.008784;-119;42;21;1;871920750
-12.096734;0.984784;0.04392;0.012688;-98;7;21;1;871932126
-12.080928;0.980879936;0.03416;0.006832;0;-49;-21;1;871947932
-12.066988;0.982831936;0.03416;-0.001952;98;-70;-42;1;871961872
-12.052522;0.983808;0.036112;-0.012688;189;-77;-77;1;871976338
-12.040853;0.98576;0.05368;-0.026352;231;-63;-112;1;871988007
-12.030107;0.983808;0.069296;-0.027328;203;-7;-133;1;871998753
-12.015594;0.984784;0.075151992;-0.023424;161;21;-112;1;872013266
-11.991202;0.982831936;0.081984;-0.011712;28;56;-56;1;872037658
-11.979205;0.984784;0.0732;0.000976;-63;49;14;1;872049655
-11.967824;0.980879936;0.063439992;0.003904;-84;35;35;1;872061036
-11.956295;0.981856;0.054656;0.007808;-140;14;35;1;872072565
-11.932539;0.979904;0.037088;0.0;-147;-28;0;1;872096321
-11.912181;0.98576;0.038064;-0.00488;70;-49;-56;1;872116679
-11.898699;0.984784;0.050752;-0.018544;182;-42;-105;1;872130161
-11.886827;0.983808;0.056608;-0.022448;238;-21;-112;1;872142033
-11.875389;0.981856;0.061488;-0.026352;238;0;-105;1;872153471
-11.865002;0.984784;0.06832;-0.022448;224;35;-98;1;872163858
-11.851370;0.983808;0.075151992;-0.017568;147;63;-91;1;872177490
-11.832605;0.98576;0.085888;0.001952;-70;70;-42;1;872196255
-11.812383;0.984784;0.0732;0.013664;-196;14;42;1;872216477
-11.799618;0.982831936;0.055632;0.00976;-203;-14;63;1;872229242
-11.787638;0.982831936;0.037088;-0.003904;-63;-63;42;1;872241222
-11.750673;0.983808;0.035136;-0.026352;112;-14;-56;1;872278187
-11.725842;0.983808;0.065392;-0.007808;203;42;-119;1;872303018
-11.703807;0.98576;0.07808;0.0;140;35;-56;1;872325053
-11.689673;0.982831936;0.075151992;0.003904;35;14;-35;1;872339187
-11.673948;0.983808;0.065392;0.003904;-14;-14;21;1;872354912
-11.659190;0.982831936;0.061488;-0.002928;-42;-28;21;1;872369670
-11.628419;0.98576;0.0488;-0.012688;-175;-35;7;1;872400441
-11.612505;0.98576;0.038064;-0.015616;28;-14;-14;1;872416355
-11.599746;0.988688;0.037088;-0.017568;105;0;-42;1;872429114
-11.588845;0.983808;0.044896;-0.016592;175;21;-77;1;872440015
-11.577508;0.981856;0.055632;-0.006832;203;35;-105;1;872451352
-11.553052;0.984784;0.070272;0.002928;77;28;-98;1;872475808
-11.529878;0.983808;0.07808;0.0;7;-7;-49;1;872498982
-11.512296;0.979904;0.06832;-0.005856;7;-42;28;1;872516564
-11.496070;0.984784;0.04392;-0.01952;-133;-35;14;1;872532790
-11.484587;0.983808;0.040016;-0.026352;-28;-7;0;1;872544273
-11.472396;0.983808;0.038064;-0.021472;49;14;-28;1;872556464
-11.462149;0.983808;0.040992;-0.018544;35;42;-70;1;872566711
-11.450756;0.98771196;0.04392;-0.00976;70;63;-105;1;872578104
-11.432524;0.983808;0.059536;0.005856;105;49;-112;1;872596336
-11.411779;0.984784;0.067343992;0.011712;217;0;-77;1;872617081
-11.396401;0.983808;0.071247992;0.005856;168;-35;-70;1;872632459
-11.364057;0.983808;0.069296;-0.027328;-49;-35;0;1;872664803
-11.347989;0.984784;0.065392;-0.025376;-91;-7;7;1;872680871
-11.332141;0.982831936;0.055632;-0.01952;-84;49;14;1;872696719
-11.312320;0.984784;0.041968;-0.003904;-21;70;0;1;872716540
-11.298936;0.979904;0.03416;0.005856;0;70;-35;1;872729924
-11.280887;0.97892796;0.046848;0.01464;147;14;-98;1;872747973
-11.243483;0.983808;0.076128;-0.017568;140;-84;-70;1;872785377
-11.226043;0.98576;0.081008;-0.028304;98;-63;-35;1;872802817
-11.201708;0.98576;0.06832;-0.02928;-147;56;35;1;872827152
-11.185204;0.98771196;0.057584;-0.01464;-217;91;42;1;872843656
-11.170893;0.982831936;0.044896;0.012688;-238;91;35;1;872857967
-11.160079;0.98576;0.03416;0.021472;-126;70;14;1;872868781
-11.140665;0.982831936;0.031232;0.023424;70;-28;-56;1;872888195
-11.130049;0.98576;0.038064;0.008784;175;-77;-91;1;872898811
-11.111835;0.981856;0.055632;-0.015616;308;-98;-112;1;872917025
-11.100915;0.981856;0.067343992;-0.027328;273;-84;-119;1;872927945
-11.088003;0.98576;0.076128;-0.03416;175;-49;-112;1;872940857
-11.076144;0.984784;0.083936;-0.037088;91;-7;-84;1;872952716
-11.057602;0.984784;0.077104;-0.01952;-35;77;-14;1;872971258
-11.046761;0.982831936;0.070272;-0.008784;-154;91;7;1;872982099
-11.034958;0.981856;0.064416;0.002928;-231;98;21;1;872993902
-11.014042;0.982831936;0.045872;0.020496;-112;42;35;1;873014818
-11.002852;0.983808;0.033184;0.01464;-42;-42;-28;1;873026008
-10.990386;0.982831936;0.036112;0.008784;49;-77;-56;1;873038474
-10.977646;0.981856;0.03904;-0.003904;168;-91;-77;1;873051214
-10.953974;0.98771196;0.049776;-0.022448;308;-77;-126;1;873074886
-10.933875;0.982831936;0.074176;-0.031232;245;-14;-133;1;873094985
-10.922850;0.983808;0.081984;-0.028304;210;35;-105;1;873106010
-10.904021;0.983808;0.083936;-0.006832;-56;84;-42;1;873124839
-10.892916;0.983808;0.080032;0.001952;-126;77;-7;1;873135944
-10.880133;0.982831936;0.057584;0.01464;-147;28;42;1;873148727
-10.855150;0.981856;0.042944;0.010736;-77;-42;28;1;873173710
-10.843797;0.983808;0.032208;0.0;-7;-70;0;1;873185063
-10.832404;0.982831936;0.031232;-0.006832;42;-84;-28;1;873196456
-10.821258;0.984784;0.03904;-0.020496;175;-56;-98;1;873207602
-10.809599;0.984784;0.049776;-0.023424;245;-28;-119;1;873219261
-10.795472;0.986736;0.062464;-0.022448;259;0;-119;1;873233388
-10.784076;0.98576;0.074176;-0.018544;189;21;-119;1;873244784
-10.771667;0.981856;0.083936;-0.010736;147;42;-98;1;873257193
-10.736995;0.980879936;0.069296;0.005856;-154;28;35;2;873291865
-10.719844;0.983808;0.047824;0.005856;-147;-14;49;1;873309016
-10.693067;0.983808;0.035136;-0.003904;-84;-49;0;1;873335793
-10.675734;0.98576;0.03416;-0.020496;119;-35;-49;1;873353126
-10.651261;0.984784;0.044896;-0.021472;182;0;-112;1;873377599
-10.632374;0.980879936;0.067343992;-0.012688;203;42;-126;1;873396486
-10.620253;0.980879936;0.082959992;0.0;63;49;-84;1;873408607
-10.605208;0.983808;0.085888;0.005856;0;28;-42;1;873423652
-10.592663;0.982831936;0.077104;0.0;-49;7;0;1;873436197
-10.581507;0.981856;0.069296;0.0;-84;-14;28;1;873447353
-10.551791;0.983808;0.042944;-0.011712;-98;-21;28;1;873477069
-10.524770;0.983808;0.035136;-0.008784;35;7;-70;1;873504090
-10.502318;0.980879936;0.045872;-0.005856;203;14;-112;1;873526542
-10.488075;0.982831936;0.067343992;-0.00488;259;7;-126;1;873540785
-10.475105;0.980879936;0.074176;-0.00488;238;0;-112;1;873553755
-10.463973;0.982831936;0.079055992;-0.001952;168;0;-98;1;873564887
-10.449228;0.982831936;0.077104;-0.00488;-21;-21;-35;1;873579632
-10.425862;0.982831936;0.072224;-0.011712;-119;-35;35;1;873602998
-10.415122;0.980879936;0.056608;-0.015616;-154;-28;49;1;873613738
-10.397614;0.984784;0.03416;-0.015616;-77;0;35;1;873631246
-10.386835;0.980879936;0.031232;-0.016592;-7;14;0;1;873642025
-10.372805;0.981856;0.03416;-0.012688;28;28;-42;1;873656055
-10.361990;0.982831936;0.036112;-0.006832;70;35;-84;1;873666870
-10.347039;0.981856;0.05368;0.003904;196;35;-112;1;873681821
-10.323968;0.980879936;0.071247992;0.00488;210;-21;-119;1;873704892
-10.312533;0.98576;0.080032;0.000976;217;-42;-84;1;873716327
-10.300343;0.983808;0.082959992;-0.008784;175;-49;-49;1;873728517
-10.289865;0.982831936;0.082959992;-0.017568;63;-56;-21;1;873738995
-10.279062;0.983808;0.076128;-0.020496;-42;-49;7;1;873749798
-10.238187;0.98771196;0.04392;-0.015616;-168;63;21;1;873790673
-10.218892;0.97892796;0.03904;0.002928;-49;63;-21;1;873809968
-10.205974;0.980879936;0.040992;0.008784;98;14;-70;1;873822886
-10.194782;0.982831936;0.047824;0.006832;154;-14;-98;1;873834078
-10.182841;0.984784;0.055632;0.002928;203;-42;-105;1;873846019
-10.172002;0.981856;0.063439992;-0.001952;245;-49;-98;1;873856858
-10.160954;0.983808;0.067343992;-0.011712;210;-56;-91;1;873867906
-10.143597;0.984784;0.079055992;-0.022448;35;-35;-70;1;873885263
-10.132409;0.982831936;0.077104;-0.022448;7;-7;-28;1;873896451
-10.113221;0.98576;0.061488;-0.01464;-105;42;14;1;873915639
-10.100811;0.98576;0.052704;-0.011712;-140;56;14;1;873928049
-10.089851;0.980879936;0.047824;-0.001952;-133;56;14;1;873939009
-10.078823;0.982831936;0.042944;0.001952;-98;49;7;1;873950037
-10.067563;0.982831936;0.040992;0.006832;-56;35;-28;1;873961297
-10.055842;0.981856;0.045872;0.008784;98;-7;-63;1;873973018
-10.044830;0.981856;0.051728;0.000976;147;-42;-77;1;873984030
-10.031871;0.980879936;0.057584;-0.001952;182;-56;-84;1;873996989
-10.012493;0.983808;0.067343992;-0.017568;168;-49;-84;1;874016367
-9.997488;0.984784;0.071247992;-0.018544;112;-35;-77;1;874031372
-9.983630;0.986736;0.0732;-0.015616;42;0;-42;1;874045230
-9.971596;0.983808;0.0732;-0.011712;-7;21;-14;1;874057264
-9.954540;0.986736;0.062464;-0.00488;-98;35;14;1;874074320
-9.944072;0.983808;0.051728;-0.002928;-112;28;14;1;874084788
-9.925605;0.982831936;0.047824;0.0;-77;21;14;1;874103255
-9.913588;0.983808;0.047824;0.002928;7;-7;-21;1;874115272
-9.895732;0.982831936;0.0488;-0.000976;21;-14;-42;1;874133128
-9.884313;0.979904;0.054656;-0.005856;126;-35;-63;1;874144547
-9.833936;0.98576;0.070272;-0.015616;49;28;-42;1;874194924
-9.821883;0.984784;0.064416;-0.012688;0;35;-21;1;874206977
-9.803593;0.983808;0.060512;-0.002928;-105;35;0;1;874225267
-9.792760;0.983808;0.054656;0.0;-105;28;7;1;874236100
-9.781038;0.982831936;0.051728;0.002928;-63;21;0;1;874247822
-9.742113;0.98576;0.045872;-0.008784;63;-21;-49;1;874286747
-9.720837;0.982831936;0.05368;-0.010736;112;-7;-77;1;874308023
-9.709479;0.983808;0.05856;-0.00976;126;7;-84;1;874319381
-9.695741;0.983808;0.064416;-0.012688;91;14;-84;1;874333119
-9.679075;0.981856;0.071247992;-0.008784;70;35;-63;1;874349785
-9.663883;0.982831936;0.069296;-0.003904;28;28;-42;1;874364977
-9.652426;0.986736;0.062464;-0.003904;-49;14;-14;1;874376434
-9.641161;0.982831936;0.057584;-0.001952;-77;7;-7;1;874387699
-9.623379;0.983808;0.044896;-0.000976;-91;0;-7;1;874405481
-9.601892;0.986736;0.041968;-0.001952;14;-14;-49;1;874426968
-9.588784;0.983808;0.044896;-0.002928;56;-21;-70;1;874440076
-9.575628;0.983808;0.0488;-0.010736;140;-28;-84;1;874453232
-9.564850;0.982831936;0.049776;-0.011712;217;-21;-84;1;874464010
-9.552451;0.980879936;0.063439992;-0.013664;154;0;-98;1;874476409
-9.540341;0.983808;0.070272;-0.011712;98;7;-91;1;874488519
-9.529782;0.982831936;0.074176;-0.005856;77;7;-63;1;874499078
-9.514205;0.982831936;0.075151992;-0.00488;56;7;-42;1;874514655
-9.484538;0.983808;0.063439992;-0.003904;-42;-7;14;1;874544322
-9.468258;0.983808;0.045872;-0.008784;-35;-21;14;1;874560602
-9.452239;0.981856;0.044896;-0.008784;-35;-14;-7;1;874576621
-9.439964;0.983808;0.04392;-0.007808;91;-7;-56;1;874588896
-9.428985;0.98576;0.045872;-0.00976;112;-14;-70;1;874599875
-9.413466;0.981856;0.054656;-0.006832;119;-7;-84;1;874615394
-9.396784;0.98771196;0.064416;-0.008784;168;-7;-70;1;874632076
-9.385157;0.986736;0.067343992;-0.006832;133;-7;-70;1;874643703
-9.356228;0.981856;0.06832;-0.007808;-7;14;-14;1;874672632
-9.327842;0.983808;0.056608;-0.005856;-112;0;14;1;874701018
-9.316278;0.984784;0.0488;-0.006832;-77;7;14;1;874712582
-9.293651;0.982831936;0.04392;-0.006832;-28;7;-21;1;874735209
-9.263699;0.982831936;0.054656;-0.010736;98;14;-70;1;874765161
-9.248307;0.980879936;0.064416;-0.007808;63;21;-77;1;874780553
-9.235825;0.982831936;0.06832;-0.005856;77;28;-63;1;874793035
-9.224862;0.983808;0.069296;-0.00488;56;14;-49;1;874803998
-9.212538;0.981856;0.067343992;-0.002928;21;0;-42;1;874816322
-9.201190;0.984784;0.065392;-0.003904;-7;-7;-28;1;874827670
-9.189793;0.980879936;0.057584;-0.008784;-28;0;-7;1;874839067
-9.177246;0.982831936;0.056608;-0.00976;-49;-7;0;1;874851614
-9.153942;0.981856;0.049776;-0.011712;-21;0;-21;1;874874918
-9.139936;0.983808;0.050752;-0.010736;7;14;-28;1;874888924
-9.123964;0.980879936;0.05368;-0.007808;7;28;-49;1;874904896
-9.112578;0.984784;0.056608;-0.002928;42;21;-56;1;874916282
-9.088735;0.983808;0.061488;-0.001952;56;-14;-56;1;874940125
-9.077890;0.984784;0.067343992;-0.001952;63;-14;-49;1;874950970
-9.065832;0.983808;0.063439992;-0.00488;56;-21;-35;1;874963028
-9.054893;0.982831936;0.062464;-0.006832;21;-28;-21;1;874973967
-9.013980;0.982831936;0.054656;-0.011712;49;0;-14;1;875014880
-8.993920;0.983808;0.0488;-0.007808;14;0;-42;1;875034940
-8.978301;0.986736;0.05368;-0.002928;77;0;-49;1;875050559
-8.967339;0.982831936;0.054656;-0.003904;98;0;-63;1;875061521
-8.955923;0.984784;0.05856;-0.001952;98;-7;-63;1;875072937
-8.934051;0.984784;0.066368;-0.007808;119;-21;-49;1;875094809
-8.921855;0.983808;0.063439992;-0.010736;70;-21;-35;1;875107005
-8.904709;0.984784;0.062464;-0.01464;14;0;-21;1;875124151
-8.893970;0.984784;0.055632;-0.016592;-7;14;-21;1;875134890
-8.882913;0.98576;0.059536;-0.011712;-28;21;-21;1;875145947
-8.866713;0.98771196;0.049776;-0.007808;14;21;-28;1;875162147
-8.844025;0.98576;0.049776;-0.00488;21;14;-49;1;875184835
-8.832733;0.983808;0.050752;-0.001952;49;7;-56;1;875196127
-8.813928;0.982831936;0.05856;-0.003904;105;0;-63;1;875214932
-8.802863;0.986736;0.059536;-0.00976;91;-7;-70;1;875225997
-8.792028;0.982831936;0.062464;-0.00976;77;-7;-63;1;875236832
-8.779273;0.98576;0.067343992;-0.012688;56;0;-63;1;875249587
-8.726438;0.984784;0.057584;-0.00488;-56;42;-14;1;875302422
-8.714318;0.984784;0.049776;0.000976;-35;35;-14;1;875314542
-8.693986;0.982831936;0.052704;0.0;-21;7;-35;1;875334874
-8.682889;0.980879936;0.054656;0.001952;14;0;-42;1;875345971
-8.663338;0.980879936;0.055632;-0.005856;105;-14;-63;1;875365522
-8.643911;0.984784;0.063439992;-0.00976;77;-7;-63;1;875384949
-8.627522;0.984784;0.063439992;-0.00976;98;0;-49;1;875401338
-8.610335;0.980879936;064416;-0.005856;-7;7;-35;1;875418525
-8.598350;0.984784;0.061488;-0.005856;-28;14;-28;1;875430510
-8.588044;0.98576;0.062464;-0.008784;0;14;-7;1;875440816
-8.575570;0.980879936;0.055632;-0.000976;-49;0;-7;1;875453290
-8.564838;0.984784;0.052704;-0.000976;-42;-7;-14;1;875464022
-8.549316;0.982831936;0.049776;0.0;0;-21;-14;1;875479544
-8.523823;0.984784;0.047824;-0.00976;84;-21;-56;1;875505037
-8.509893;0.983808;0.05368;-0.00976;91;-21;-63;1;875518967
-8.496201;0.98576;0.055632;-0.010736;119;-14;-70;1;875532659
-8.480035;0.983808;0.061488;-0.011712;105;0;-63;1;875548825
-8.464895;0.982831936;0.064416;-0.003904;77;14;-49;1;875563965
-8.453548;0.981856;0.063439992;-0.00488;56;14;-35;1;875575312
-8.442997;0.98771196;0.063439992;-0.003904;21;7;-35;1;875585863
-8.424033;0.982831936;0.057584;-0.00488;-14;-7;-21;1;875604827
-8.412699;0.981856;0.051728;-0.006832;0;-7;-21;1;875616161
-8.401916;0.986736;0.052704;-0.006832;14;-7;-28;1;875626944
-8.389601;0.983808;0.051728;-0.007808;7;-7;-35;1;875639259
-8.378668;0.982831936;0.049776;-0.011712;21;-14;-49;1;875650192
-8.364112;0.982831936;0.052704;-0.012688;77;7;-70;1;875664748
-8.352887;0.98576;0.054656;-0.008784;84;14;-77;1;875675973
-8.333558;0.98576;0.064416;-0.003904;84;21;-77;1;875695302
-8.319772;0.981856;0.066368;-0.003904;56;14;-63;1;875709088
-8.308813;0.98576;0.064416;-0.00488;21;14;-49;1;875720047
-8.294513;0.986736;0.059536;-0.002928;-7;7;-42;1;875734347
-8.283784;0.982831936;0.061488;-0.001952;-14;7;-35;1;875745076
-8.246488;0.980879936;0.050752;-0.011712;7;-7;-35;1;875782372
-8.234529;0.984784;0.051728;-0.011712;28;7;-42;1;875794331
-8.218441;0.983808;0.054656;-0.00976;49;7;-63;1;875810419
-8.207298;0.981856;0.059536;-0.008784;77;14;-70;1;875821562
-8.194110;0.983808;0.061488;-0.00488;98;14;-63;1;875834750
-8.182835;0.980879936;0.066368;-0.000976;49;7;-56;1;875846025
-8.171133;0.984784;0.064416;0.0;63;0;-42;1;875857727
-8.159722;0.984784;0.064416;-0.001952;63;-14;-28;1;875869138
-8.148662;0.980879936;0.064416;-0.002928;21;-28;-21;1;875880198
-8.132534;0.984784;0.057584;-0.003904;0;-21;-7;1;875896326
-8.119525;0.982831936;0.05856;-0.007808;-21;-21;-14;1;875909335
-8.099923;0.983808;0.054656;-0.008784;49;-21;-28;1;875928937
-8.088834;0.982831936;0.052704;-0.010736;70;-21;-28;1;875940026
-8.075413;0.983808;0.052704;-0.010736;56;-7;-35;1;875953447
-8.064398;0.984784;0.0488;-0.007808;70;0;-42;1;875964462
-8.052723;0.983808;0.05368;-0.006832;77;0;-49;1;875976137
-8.040128;0.981856;0.059536;-0.005856;91;-14;-56;1;875988732
-8.026907;0.984784;0.061488;-0.00488;105;-14;-49;1;876001953
-8.004026;0.984784;0.065392;-0.007808;14;-14;-35;1;876024834
-7.991559;0.983808;0.063439992;-0.011712;14;-14;-14;1;876037301
-7.980968;0.984784;0.059536;-0.013664;-28;-14;-7;1;876047892
-7.959085;0.98576;0.050752;-0.013664;7;14;-21;1;876069775
-7.946486;0.98576;0.050752;-0.011712;14;21;-28;1;876082374
-7.935879;0.984784;0.0;;1.7639999;0.294;-0.098;1;876092981
-7.924549;0.98576;0.047824;-0.00488;28;21;-49;1;876104311
-7.903565;0.983808;0.056608;-0.00488;77;14;-70;1;876125295
-7.890284;0.98576;0.062464;-0.001952;105;7;-70;1;876138576
-7.879870;0.982831936;0.064416;-0.006832;77;0;-63;1;876148990
-7.857314;0.986736;0.064416;-0.011712;14;7;-49;1;876171546
-7.846824;0.98576;0.066368;-0.012688;-21;14;-35;1;876182036
-7.823695;0.983808;0.05856;-0.007808;-28;28;-28;1;876205165
-7.762368;0.98576;0.054656;-0.000976;21;14;-56;1;876266492
-7.748875;0.982831936;0.059536;-0.00488;91;-7;-70;1;876279985
-7.733974;0.984784;0.059536;-0.001952;98;-14;-63;1;876294886
-7.722664;0.983808;0.063439992;-0.006832;98;-14;-49;1;876306196
-7.700696;0.983808;0.063439992;-0.010736;70;-14;-42;1;876328164
-7.689320;0.980879936;0.061488;-0.012688;14;0;-28;1;876339540
-7.678997;0.982831936;0.060512;-0.006832;-14;7;-21;1;876349863
-7.656119;0.986736;0.055632;-0.001952;-7;0;-14;1;876372741
-7.640473;0.983808;0.05368;-0.000976;28;-7;-14;1;876388387
-7.620718;0.98771196;0.050752;-0.000976;49;-21;-28;1;876408142
-7.609497;0.983808;0.051728;-0.00488;77;-21;-35;1;876419363
-7.598459;0.983808;0.056608;-0.00488;91;-28;-63;1;876430401
-7.586841;0.983808;0.059536;-0.00488;119;-21;-63;1;876442019
-7.561116;0.981856;0.06832;-0.010736;77;-21;-56;1;876467744
-7.530665;0.982831936;0.063439992;-0.012688;21;-7;-21;1;876498195
-7.510417;0.983808;0.059536;-0.013664;-7;7;-21;1;876518443
-7.499106;0.983808;0.056608;-0.007808;-14;14;-28;1;876529754
-7.487715;0.986736;0.05368;-0.00488;7;0;-28;1;876541145
-7.470802;0.983808;0.052704;-0.007808;28;-7;-35;1;876558058
-7.443631;0.98576;0.054656;-0.006832;98;7;-56;1;876585229
-7.423762;0.982831936;0.059536;-0.008784;35;7;-70;1;876605098
-7.411513;0.98576;0.063439992;-0.007808;42;14;-63;1;876617347
-7.392414;0.98576;0.063439992;-0.00488;7;21;-42;1;876636446
-7.379410;0.986736;0.061488;-0.003904;0;21;-42;1;876649450
-7.357679;0.981856;0.056608;-0.00488;-28;14;-21;1;876671181
-7.329760;0.981856;0.055632;-0.003904;-14;14;-35;1;876699100
-7.318321;0.980879936;0.056608;0.0;7;14;-42;1;876710539
-7.307791;0.983808;0.054656;-0.001952;28;-7;-42;1;876721069
-7.292963;0.983808;0.059536;-0.006832;70;-7;-49;1;876735897
-7.229855;0.980879936;0.062464;-0.006832;-21;0;-28;1;876799005
-7.217364;0.980879936;0.061488;-0.007808;-14;7;-28;1;876811496
-7.206716;0.983808;0.05856;-0.001952;28;0;-14;1;876822144
-7.195315;0.98576;0.05368;-0.001952;14;-28;-14;1;876833545
-7.182736;0.984784;0.052704;-0.00488;21;-28;-21;1;876846124
-7.171900;0.983808;0.052704;-0.007808;35;-28;-28;1;876856960
-7.159243;0.982831936;0.052704;-0.007808;35;-28;-35;1;876869617
-7.129588;0.983808;0.05856;-0.00976;105;-14;-49;1;876899272
-7.118982;0.984784;0.05856;-0.00976;98;-14;-49;1;876909878
-7.106690;0.984784;0.061488;-0.011712;84;-7;-49;1;876922170
-7.095315;0.984784;0.060512;-0.007808;70;0;-42;1;876933545
-7.083686;0.986736;0.05856;-0.008784;35;0;-35;1;876945174
-7.071997;0.98576;0.057584;-0.007808;42;0;-28;1;876956863
-7.056130;0.983808;0.062464;-0.006832;21;0;-28;1;876972730
-7.042347;0.984784;0.057584;-0.007808;7;7;-28;1;876986513
-7.013327;0.98771196;0.05368;-0.007808;49;-7;-35;1;877015533
-6.993975;0.983808;0.05856;-0.010736;28;7;-56;1;877034885
-6.980543;0.983808;0.057584;-0.00976;7;14;-56;1;877048317
-6.963939;0.983808;0.059536;-0.005856;35;21;-49;1;877064921
-6.943935;0.981856;0.062464;-0.006832;0;7;-49;1;877084925
-6.932223;0.984784;0.065392;-0.00488;35;21;-35;1;877096637
-6.899840;0.980879936;0.054656;-0.003904;-42;14;-35;1;877129020
-6.888960;0.981856;0.052704;-0.003904;-21;7;-35;1;877139900
-6.874364;0.986736;0.05856;-0.005856;0;14;-42;1;877154496
-6.862056;0.981856;0.060512;-0.003904;7;7;-42;1;877166804
-6.850851;0.98576;0.057584;-0.005856;-7;7;-42;1;877178009
-6.834029;0.981856;0.055632;-0.005856;28;7;-35;1;877194831
-6.820953;0.984784;0.057584;-0.00976;35;7;-49;1;877207907
-6.782871;0.984784;0.062464;-0.001952;35;14;-28;1;877245989
-6.756558;0.984784;0.057584;-0.00488;28;-7;-14;1;877272302
-6.735220;0.984784;0.056608;-0.00488;14;-14;-14;1;877293640
-6.713893;0.982831936;0.054656;-0.010736;7;-21;-14;1;877314967
-6.693901;0.982831936;0.055632;-0.008784;35;-7;-21;1;877334959
-6.679590;0.982831936;0.055632;-0.005856;63;0;-42;1;877349270
-6.662173;0.981856;0.056608;-0.00488;84;0;-35;1;877366687
-6.643876;0.986736;0.057584;-0.005856;63;-21;-42;1;877384984
-6.629726;0.983808;0.063439992;-0.00488;70;-7;-42;1;877399134
-6.613659;0.981856;0.05856;-0.005856;98;-14;-35;1;877415201
-6.593858;0.984784;0.059536;-0.01464;0;-14;-35;1;877435002
-6.578443;0.98576;0.05368;-0.017568;14;14;-28;1;877450417
-6.542301;0.986736;0.05368;-0.00488;28;28;-49;1;877486559
-6.530994;0.981856;0.05368;-0.000976;14;21;-49;1;877497866
-6.515892;0.98576;0.05856;-0.000976;56;7;-56;2;877512968
-6.493930;0.984784;0.05856;-0.003904;56;-14;-70;1;877534930
-6.480228;0.98576;0.065392;-0.01464;77;-14;-56;1;877548632
-6.466423;0.98771196;0.063439992;-0.01464;7;-7;-49;1;877562437
-6.454960;0.984784;0.061488;-0.011712;-28;14;-49;1;877573900
-6.442441;0.984784;0.059536;-0.012688;0;28;-35;1;877586419
-6.429980;0.983808;0.059536;-0.007808;-7;35;-42;1;877598880
-6.417649;0.982831936;0.057584;-0.003904;14;35;-35;1;877611211
-6.393933;0.983808;0.05856;0.0;-28;35;-42;1;877634927
-6.379833;0.982831936;0.057584;0.000976;-35;21;-42;1;877649027
-6.352652;0.98576;0.057584;-0.002928;28;-14;-35;1;877676208
-6.340415;0.98576;0.05856;-0.001952;28;-7;-35;1;877688445
-6.323992;0.984784;0.059536;-0.007808;35;-14;-28;1;877704868
-6.303913;0.980879936;0.05856;-0.008784;63;-14;-28;1;877724947
-6.289763;0.981856;0.059536;-0.00976;28;0;-35;1;877739097
-6.278960;0.984784;0.057584;-0.008784;14;21;-21;1;877749900
-6.240835;0.982831936;0.05368;-0.000976;-56;7;-14;1;877788025
-6.225323;0.979904;0.052704;0.006832;56;-7;-7;1;877803537
-6.213052;0.98576;0.051728;0.005856;35;-28;-14;1;877815808
-6.193689;0.98576;0.052704;-0.006832;63;-63;-28;1;877835171
-6.179366;0.984784;0.05368;-0.015616;112;-56;-35;1;877849494
-6.158303;0.983808;0.056608;-0.012688;70;-14;-56;1;877870557
-6.146719;0.982831936;0.059536;-0.011712;77;-7;-42;1;877882141
-6.122774;0.984784;0.056608;-0.011712;56;28;-49;1;877906086
-6.111414;0.984784;0.05856;0.0;7;42;-56;1;877917446
-6.093916;0.984784;0.057584;0.005856;56;7;-42;1;877934944
-6.079132;0.986736;0.052704;0.003904;35;-21;-35;1;877949728
-6.065694;0.984784;0.05368;-0.007808;63;-14;-49;1;877963166
-6.054389;0.982831936;0.051728;-0.006832;105;-14;-56;1;877974471
-6.043804;0.979904;0.049776;-0.00976;84;-21;-70;1;877985056
-6.027088;0.982831936;0.05368;-0.015616;112;-14;-84;1;878001772
-6.016010;0.986736;0.055632;-0.012688;105;14;-91;1;878012850
-5.993959;0.98771196;0.061488;-0.003904;112;35;-84;1;878034901
-5.980131;0.98576;0.066368;0.0;98;21;-70;1;878048729
-5.965909;0.982831936;0.065392;-0.007808;7;7;-49;1;878062951
-5.953280;0.98576;0.066368;-0.006832;14;14;-35;1;878075580
-5.943118;0.982831936;0.064416;0.001952;0;14;-28;1;878085742
-5.927934;0.981856;0.065392;0.001952;-49;0;-21;1;878100926
-5.916794;0.983808;0.059536;0.000976;-56;-21;-7;1;878112066
-5.893010;0.98576;0.049776;-0.008784;7;-7;-7;1;878135850
-5.869110;0.983808;0.051728;-0.006832;28;-14;-42;1;878159750
-5.846892;0.984784;0.05368;-0.00976;70;0;-49;1;878181968
-5.835594;0.986736;0.057584;-0.001952;84;21;-56;1;878193266
-5.824899;0.982831936;0.062464;0.000976;119;14;-56;1;878203961
-5.807698;0.981856;0.067343992;-0.001952;140;-7;-49;1;878221162
-5.711194;0.983808;0.04392;-0.002928;28;7;-21;1;878317666
-5.699010;0.981856;0.046848;0.0;77;-14;-42;1;878329850
-5.687690;0.981856;0.045872;-0.000976;112;-28;-56;1;878341170
-5.673852;0.986736;0.054656;-0.006832;119;-14;-77;1;878355008
-5.662742;0.980879936;0.059536;-0.005856;84;-7;-84;1;878366118
-5.652045;0.98576;0.064416;-0.003904;56;-14;-84;1;878376815
-5.640402;0.98576;0.067343992;-0.011712;77;-14;-63;1;878388458
-5.624488;0.98771196;0.067343992;-0.013664;91;-7;-49;1;878404372
-5.601707;0.981856;0.056608;-0.005856;-49;35;-14;1;878427153
-5.590760;0.983808;0.047824;-0.003904;-42;35;-14;1;878438100
-5.578784;0.984784;0.044896;-0.000976;-63;21;-28;1;878450076
-5.568077;0.983808;0.04392;-0.001952;-42;21;-49;1;878460783
-5.550960;0.981856;0.0488;0.007808;91;21;-77;1;878477900
-5.539796;0.981856;0.055632;0.005856;119;-14;-84;1;878489064
-5.504019;0.98576;0.065392;-0.016592;196;-21;-91;1;878524841
-5.491868;0.984784;0.070272;-0.016592;77;14;-84;1;878536992
-5.480802;0.983808;0.074176;-0.013664;21;35;-63;1;878548058
-5.469898;0.98576;0.072224;-0.008784;7;35;-28;1;878558962
-5.455682;0.98576;0.070272;-0.006832;-35;35;-14;1;878573178
-5.445034;0.983808;0.065392;0.0;-126;49;-7;1;878583826
-5.431592;0.982831936;0.057584;0.007808;-21;28;14;1;878597268
-5.419862;0.982831936;0.05368;0.007808;-56;0;14;1;878608998
-5.402477;0.982831936;0.047824;-0.002928;-56;-28;-14;1;878626383
-5.386588;0.984784;0.045872;0.001952;21;-21;-21;1;878642272
-5.371130;0.986736;0.050752;-0.00488;119;-56;-42;1;878657730
-5.359673;0.983808;0.05856;-0.013664;133;-63;-49;1;878669187
-5.346174;0.982831936;0.060512;-0.021472;119;-35;-42;1;878682686
-5.332101;0.983808;0.062464;-0.012688;49;14;-35;1;878696759
-5.320653;0.984784;0.06832;-0.006832;28;28;-35;1;878708207
-5.308667;0.983808;0.066368;-0.007808;7;21;-14;1;878720193
-5.296657;0.98576;0.069296;-0.007808;-28;14;7;1;878732203
-5.284708;0.984784;0.062464;-0.00488;-56;21;21;1;878744152
-5.258982;0.982831936;0.04392;0.006832;-70;-14;7;1;878769878
-5.225291;0.98576;0.041968;-0.013664;63;-49;-42;1;878803569
-5.208196;0.983808;0.049776;-0.015616;119;0;-77;1;878820664
-5.193657;0.986736;0.052704;-0.012688;105;0;-84;1;878835203
-5.180866;0.983808;0.063439992;-0.011712;105;14;-98;1;878847994
-5.164993;0.982831936;0.067343992;-0.005856;98;35;-77;1;878863867
-5.131354;0.983808;0.060512;0.000976;0;-14;-35;1;878897506
-5.112417;0.983808;0.051728;-0.013664;-7;-21;-35;1;878916443
-5.100073;0.98576;0.047824;-0.010736;7;21;-56;1;878928787
-5.087701;0.98771196;0.051728;-0.011712;56;21;-70;1;878941159
-5.074079;0.983808;0.054656;-0.012688;105;21;-70;1;878954781
-5.054813;0.982831936;0.062464;-0.011712;42;70;-98;1;878974047
-5.043844;0.98576;0.067343992;0.001952;7;84;-91;1;878985016
-5.013627;0.984784;0.065392;0.007808;28;-21;-35;1;879015233
-4.991021;0.982831936;0.061488;-0.003904;-7;-35;-14;1;879037839
-4.978343;0.983808;0.056608;-0.013664;-63;-35;7;1;879050517
-4.952199;0.982831936;0.0488;-0.027328;-35;-7;-14;1;879076661
-4.934044;0.982831936;0.047824;-0.007808;0;77;-42;1;879094816
-4.921876;0.980879936;0.055632;0.005856;49;84;-49;1;879106984
-4.902128;0.979904;0.059536;0.017568;63;-7;-49;1;879126732
-4.882233;0.984784;0.064416;0.007808;119;-49;-35;1;879146627
-4.856586;0.983808;0.060512;-0.01464;7;-105;-14;1;879172274
-4.830034;0.984784;0.0488;-0.031232;77;-35;-7;1;879198826
-4.818693;0.986736;0.051728;-0.025376;42;21;-28;1;879210167
-4.802424;0.983808;0.052704;-0.00488;14;56;-42;1;879226436
-4.790932;0.984784;0.050752;0.006832;56;35;-28;1;879237928
-4.765167;0.984784;0.05368;0.012688;112;-7;-70;1;879263693
-4.754426;0.981856;0.057584;0.011712;168;-42;-63;1;879274434
-4.730071;0.983808;0.054656;-0.010736;154;-112;-49;1;879298789
-4.692844;0.981856;0.055632;-0.031232;56;-49;-70;1;879336016
-4.675147;0.982831936;0.05856;-0.013664;-7;42;-63;1;879353713
-4.659902;0.982831936;0.05856;-0.008784;14;63;-56;1;879368958
-4.647663;0.983808;0.05368;-0.000976;14;84;-49;1;879381197
-4.629422;0.982831936;0.05856;0.012688;7;28;-70;1;879399438
-4.612065;0.984784;0.061488;-0.002928;56;-49;-63;1;879416795
-4.598804;0.98576;0.060512;-0.006832;49;-42;-56;1;879430056
-4.586657;0.983808;0.062464;-0.01464;35;-14;-63;1;879442203
-4.574248;0.981856;0.063439992;-0.016592;56;-21;-56;1;879454612
-4.563078;0.982831936;0.061488;-0.0244;91;-14;-42;1;879465782
-4.550954;0.98576;0.059536;-0.027328;63;28;-42;1;879477906
-4.532091;0.982831936;0.062464;-0.006832;-63;112;-56;1;879496769
-4.520265;0.982831936;0.065392;0.003904;-7;105;-21;1;879508595
-4.508931;0.981856;0.065392;0.010736;-14;70;-7;1;879519929
-4.494249;0.983808;0.061488;0.008784;-84;35;-7;1;879534611
-4.483351;0.981856;0.059536;0.00976;-49;28;7;1;879545509
-4.468806;0.981856;0.055632;0.011712;-63;0;14;1;879560054
-4.455484;0.98576;0.052704;-0.00488;-21;-84;0;1;879573376
-4.441980;0.98771196;0.056608;-0.01952;14;-77;0;1;879586880
-4.422852;0.986736;0.056608;-0.018544;21;14;-14;1;879606008
-4.389356;0.982831936;0.05368;-0.00976;7;28;-7;1;879639504
-4.378299;0.981856;0.056608;-0.001952;42;42;-14;1;879650561
-4.367414;0.980879936;0.062464;0.005856;-28;56;-28;1;879661446
-4.352484;0.979904;0.056608;0.01952;7;0;7;1;879676376
-4.340320;0.982831936;0.05368;0.012688;21;-63;21;1;879688540
-4.320579;0.983808;0.044896;-0.010736;63;-91;-14;1;879708281
-4.289943;0.983808;0.049776;-0.01952;42;-35;-56;1;879738917
-4.272718;0.983808;0.052704;-0.01952;77;7;-56;1;879756142
-4.261714;0.984784;0.056608;-0.012688;56;42;-70;1;879767146
-4.248868;0.982831936;0.055632;-0.003904;84;63;-77;1;879779992
-4.209111;0.982831936;0.05368;0.002928;98;-49;-70;1;879819749
-4.194638;0.98576;0.054656;-0.000976;70;-49;-84;1;879834222
-4.183447;0.98576;0.056608;-0.008784;140;-63;-77;1;879845413
-4.157931;0.98771196;0.05856;-0.027328;98;-42;-77;1;879870929
-4.147048;0.98771196;0.059536;-0.02928;70;0;-77;1;879881812
-4.131151;0.981856;0.060512;-0.01464;77;70;-77;1;879897709
-4.113871;0.984784;0.061488;-0.008784;56;70;-70;1;879914989
-4.097661;0.98576;0.06832;0.000976;-56;63;-70;1;879931199
-4.086856;0.984784;0.065392;0.010736;-49;56;-56;1;879942004
-4.074621;0.983808;0.063439992;0.017568;21;35;-35;1;879954239
-4.047909;0.982831936;0.05856;-0.006832;0;-77;-21;1;879980951
-4.023966;0.982831936;0.054656;-0.0244;49;-42;-7;1;880004894
-4.003947;0.983808;0.056608;-0.022448;-14;21;-35;1;880024913
-3.990498;0.986736;0.069296;-0.018544;-49;63;-35;1;880038362
-3.980132;0.98576;0.065392;-0.006832;-56;91;-14;1;880048728
-3.967866;0.980879936;0.064416;0.007808;-35;98;7;1;880060994
-3.955567;0.980879936;0.064416;0.015616;-56;70;14;1;880073293
-3.941929;0.980879936;0.057584;0.00976;-119;-14;14;1;880086931
-3.924036;0.981856;0.054656;0.005856;-35;-35;28;1;880104824
-3.890749;0.981856;0.051728;-0.015616;14;-77;-14;1;880138111
-3.879870;0.98576;0.050752;-0.027328;84;-49;-7;1;880148990
-3.844010;0.982831936;0.050752;-0.007808;7;56;-70;1;880184850
-3.823878;0.980879936;0.055632;0.008784;98;42;-70;1;880204982
-3.812925;0.983808;0.055632;0.012688;98;14;-63;1;880215935
-3.787150;0.984784;0.056608;0.006832;98;-77;-63;1;880241710
-3.774565;0.983808;0.05368;-0.003904;126;-112;-56;1;880254295
-3.762218;0.984784;0.047824;-0.018544;245;-105;-49;1;880266642
-3.751291;0.986736;0.049776;-0.030256;266;-63;-63;1;880277569
-3.720854;0.984784;0.057584;-0.01952;147;56;-84;1;880308006
-3.703608;0.981856;0.054656;-0.000976;35;56;-84;1;880325252
-3.686555;0.980879936;0.064416;0.012688;49;56;-98;1;880342305
-3.667287;0.98576;0.05856;0.017568;140;-42;-49;1;880361573
-3.656899;0.981856;0.057584;0.003904;84;-91;-70;1;880371961
-3.644730;0.980879936;0.059536;-0.012688;42;-98;-84;1;880384130
-3.623998;0.984784;0.060512;-0.028304;245;-35;-56;1;880404862
-3.602791;0.983808;0.06832;-0.027328;56;21;-77;1;880426069
-3.590137;0.98771196;0.069296;-0.027328;-112;56;-77;1;880438723
-3.577304;0.983808;0.074176;-0.00488;-63;119;-14;1;880451556
-3.566700;0.980879936;0.067343992;0.010736;-84;105;0;1;880462160
-3.543967;0.984784;0.067343992;0.01952;-133;28;14;1;880484893
-3.523870;0.982831936;0.057584;0.003904;-154;-49;49;1;880504990
-3.491758;0.983808;0.0488;-0.018544;-49;-56;-7;1;880537102
-3.480579;0.983808;0.051728;-0.0244;-7;-42;-21;1;880548281
-3.467196;0.983808;0.05368;-0.022448;91;42;7;1;880561664
-3.454103;0.98771196;0.057584;-0.013664;-28;77;-21;1;880574757
-3.442899;0.982831936;0.062464;-0.005856;-119;77;-42;1;880585961
-3.423989;0.982831936;0.067343992;0.007808;49;56;14;1;880604871
-3.412824;0.982831936;0.060512;0.013664;21;35;35;1;880616036
-3.399895;0.986736;0.060512;0.012688;-140;14;28;1;880628965
-3.388694;0.983808;0.055632;0.010736;-231;-21;21;1;880640166
-3.377959;0.981856;0.040016;-0.002928;7;-70;42;1;880650901
-3.364090;0.98576;0.036112;-0.011712;63;-77;21;1;880664770
-3.350951;0.98771196;0.035136;-0.021472;49;-56;-28;1;880677909
-3.333858;0.984784;0.041968;-0.023424;91;7;-70;1;880695002
-3.312727;0.983808;0.047824;-0.011712;154;49;-98;1;880716133
-3.291537;0.982831936;0.05856;0.006832;175;56;-140;1;880737323
-3.278139;0.983808;0.067343992;0.012688;196;28;-126;1;880750721
-3.264076;0.982831936;0.063439992;0.012688;119;-42;-84;1;880764784
-3.223970;0.984784;0.055632;-0.021472;112;-70;-77;1;880804890
-3.191264;0.986736;0.049776;-0.01952;70;0;-91;1;880837596
-3.177128;0.986736;0.050752;-0.020496;70;35;-119;1;880851732
-3.161583;0.980879936;0.05856;0.001952;217;70;-105;1;880867277
-3.132991;0.983808;0.072224;0.011712;56;-14;-112;1;880895869
-3.114029;0.983808;0.0732;0.002928;238;-56;-35;1;880914831
-3.102264;0.98771196;0.070272;-0.006832;112;-56;-42;1;880926596
-3.090888;0.982831936;0.06832;-0.013664;-91;-63;-49;1;880937972
-3.079905;0.984784;0.06832;-0.021472;-63;-56;-21;1;880948955
-3.068291;0.983808;0.064416;-0.0244;56;-28;21;1;880960569
-3.054139;0.984784;0.055632;-0.018544;-119;28;-7;1;880974721
-3.043050;0.981856;0.063439992;-0.01464;-147;56;-14;1;880985810
-3.031930;0.984784;0.059536;-0.007808;-49;63;21;1;880996930
-3.014012;0.98576;0.057584;-0.000976;-84;63;21;1;881014848
-3.002196;0.983808;0.05856;0.005856;-175;42;-14;1;881026664
-2.990847;0.979904;0.063439992;0.013664;-133;35;-7;1;881038013
-2.978123;0.982831936;0.064416;0.013664;-14;-7;21;1;881050737
-2.965937;0.983808;0.05856;0.005856;0;-49;35;1;881062923
-2.953424;0.984784;0.05856;-0.010736;-91;-63;28;1;881075436
-2.933568;0.98576;0.051728;-0.028304;-35;-21;28;1;881095292
-2.922773;0.984784;0.052704;-0.030256;-42;-7;14;1;881106087
-2.904036;0.982831936;0.052704;-0.021472;-56;70;-7;1;881124824
-2.890733;0.98576;0.05368;-0.011712;-77;105;-14;1;881138127
-2.878748;0.97892796;0.054656;0.002928;-77;112;-21;1;881150112
-2.866199;0.980879936;0.0488;0.013664;-70;91;-21;1;881162661
-2.843605;0.983808;0.049776;0.011712;14;-28;-49;1;881185255
-2.832928;0.983808;0.050752;0.002928;-7;-49;-63;1;881195932
-2.821964;0.982831936;0.052704;-0.002928;70;-63;-63;1;881206896
-2.809560;0.982831936;0.051728;-0.012688;189;-63;-49;1;881219300
-2.792526;0.98576;0.051728;-0.028304;21;-35;-84;1;881236334
-2.779704;0.98771196;0.05368;-0.025376;35;0;-91;1;881249156
-2.754600;0.988688;0.054656;-0.00976;168;63;-77;1;881274260
-2.731883;0.983808;0.064416;0.010736;84;42;-91;1;881296977
-2.720094;0.982831936;0.061488;0.013664;196;14;-56;1;881308766
-2.700797;0.98576;0.060512;0.00976;49;-56;-91;1;881328063
-2.661248;0.986736;0.051728;-0.020496;189;-70;-84;1;881367612
-2.627723;0.988688;0.06832;-0.020496;252;21;-49;1;881401137
-2.615603;0.98576;0.066368;-0.01464;112;35;-49;1;881413257
-2.601889;0.98576;0.071247992;0.0;-7;63;-49;1;881426971
-2.588991;0.982831936;0.072224;0.00976;77;42;-14;1;881439869
-2.577934;0.983808;0.06832;0.012688;42;14;7;1;881450926
-2.565198;0.984784;0.063439992;0.011712;-42;-28;7;1;881463662
-2.552044;0.982831936;0.055632;-0.007808;-42;-70;21;1;881476816
-2.538050;0.98576;0.055632;-0.015616;7;-70;28;1;881490810
-2.519840;0.982831936;0.05368;-0.025376;-21;-35;7;1;881509020
-2.507423;0.981856;0.05856;-0.030256;-49;0;7;1;881521437
-2.495581;0.984784;0.056608;-0.028304;-35;35;14;1;881533279
-2.484935;0.98576;0.062464;-0.021472;-77;70;14;1;881543925
-2.472239;0.98576;0.063439992;-0.010736;-147;98;0;1;881556621
-2.460040;0.981856;0.062464;0.00976;-105;91;28;1;881568820
-2.448313;0.983808;0.062464;0.013664;-126;63;35;1;881580547
-2.422555;0.984784;0.05368;0.006832;-154;0;28;1;881606305
-2.402339;0.984784;0.044896;-0.006832;-84;-28;35;1;881626521
-2.387535;0.984784;0.046848;-0.01952;-77;-7;-7;1;881641325
-2.365401;0.983808;0.045872;-0.020496;7;56;-28;1;881663459
-2.354832;0.982831936;0.049776;-0.012688;-21;91;-42;1;881674028
-2.342472;0.983808;0.050752;-0.003904;-56;98;-63;1;881686388
-2.331238;0.982831936;0.056608;0.005856;-70;91;-70;1;881697622
-2.312512;0.983808;0.056608;0.006832;56;35;-49;1;881716348
-2.292747;0.982831936;0.052704;0.007808;0;0;-63;1;881736113
-2.280535;0.982831936;0.05368;0.005856;35;-21;-63;1;881748325
-2.262348;0.984784;0.0488;-0.008784;63;-63;-63;1;881766512
-2.242283;0.982831936;0.047824;-0.012688;161;-21;-84;1;881786577
-2.188007;0.982831936;0.065392;0.00488;161;14;-126;1;881840853
-2.176256;0.982831936;0.067343992;0.013664;168;0;-112;1;881852604
-2.159948;0.979904;0.070272;0.013664;154;-49;-84;1;881868912
-2.143881;0.984784;0.062464;0.0;280;-98;-28;1;881884979
-2.132720;0.984784;0.059536;-0.00976;224;-105;-49;1;881896140
-2.112455;0.983808;0.054656;-0.021472;63;-70;-63;1;881916405
-2.097767;0.982831936;0.055632;-0.025376;175;-21;-35;1;881931093
-2.086987;0.984784;0.059536;-0.021472;-14;-7;-70;1;881941873
-2.075679;0.98576;0.065392;-0.011712;21;28;-77;1;881953181
-2.064924;0.980879936;0.064416;-0.002928;175;63;-42;1;881963936
-2.051849;0.981856;0.066368;0.007808;182;35;-21;1;881977011
-2.040866;0.983808;0.063439992;0.010736;63;-7;-28;1;881987994
-2.018150;0.982831936;0.05856;-0.003904;105;-63;28;1;882010710
-2.006935;0.986736;0.056608;-0.011712;112;-63;28;1;882021925
-1.995319;0.984784;0.055632;-0.01952;-49;-63;-7;1;882033541
-1.984936;0.981856;0.05856;-0.028304;-161;-42;-14;1;882043924
-1.954042;0.984784;0.054656;-0.026352;-105;98;0;1;882074818
-1.933927;0.980879936;0.062464;0.002928;-189;126;-14;1;882094933
-1.921029;0.980879936;0.057584;0.00976;-112;105;21;1;882107831
-1.903920;0.98576;0.050752;0.016592;-98;42;7;1;882124940
-1.892799;0.981856;0.050752;0.01952;-133;7;-14;1;882136061
-1.882015;0.981856;0.052704;0.007808;-119;-21;-28;1;882146845
-1.870814;0.982831936;0.05368;-0.001952;-42;-56;-7;1;882158046
-1.854036;0.984784;0.04392;-0.027328;7;-42;-14;1;882174824
-1.842231;0.984784;0.042944;-0.03416;-14;14;-56;1;882186629
-1.821087;0.982831936;0.055632;-0.015616;-7;105;-84;1;882207773
-1.800477;0.981856;0.060512;0.003904;49;112;-63;1;882228383
-1.789388;0.983808;0.064416;0.01464;-7;105;-70;1;882239472
-1.778206;0.981856;0.06832;0.018544;-91;77;-84;1;882250654
-1.763902;0.97892796;0.059536;0.0244;105;-14;-14;1;882264958
-1.742450;0.984784;0.050752;-0.000976;7;-98;-49;1;882286410
-1.722397;0.979904;0.0488;-0.016592;98;-77;-63;1;882306463
-1.690533;0.98771196;0.050752;-0.018544;84;-28;-112;1;882338327
-1.675286;0.98576;0.062464;-0.006832;217;35;-91;1;882353574
-1.661937;0.98576;0.061488;0.005856;357;56;-70;1;882366923
-1.640150;0.979904;0.072224;0.018544;7;-28;-105;1;882388710
-1.622280;0.982831936;0.06832;0.002928;252;-98;0;1;882406580
-1.607615;0.98771196;0.060512;-0.00488;133;-112;0;1;882421245
-1.591830;0.983808;0.054656;-0.016592;42;-98;-28;1;882437030
-1.576746;0.98576;0.054656;-0.032208;126;-84;-21;1;882452114
-1.556822;0.98771196;0.051728;-0.027328;91;-14;-35;1;882472038
-1.542442;0.981856;0.052704;-0.011712;77;56;-63;1;882486418
-1.531172;0.982831936;0.05856;-0.001952;112;63;-56;1;882497688
-1.510922;0.982831936;0.063439992;0.000976;35;21;-56;1;882517938
-1.490739;0.98576;0.070272;0.002928;105;14;-14;1;882538121
-1.477764;0.983808;0.067343992;-0.005856;-49;-14;-14;1;882551096
-1.462489;0.980879936;0.05856;-0.010736;-42;-42;21;1;882566371
-1.426375;0.986736;0.046848;-0.020496;-259;28;-21;1;882602485
-1.412162;0.984784;0.044896;-0.012688;63;77;-7;1;882616698
-1.388329;0.986736;0.051728;-0.00976;-63;77;-63;1;882640531
-1.374779;0.982831936;0.05368;-0.003904;-98;91;-77;1;882654081
-1.348984;0.983808;0.064416;0.012688;35;35;-56;1;882679876
-1.332474;0.979904;0.0732;0.001952;-28;-21;-42;1;882696386
-1.320944;0.98576;0.065392;-0.001952;77;-21;14;1;882707916
-1.309469;0.988688;0.059536;-0.00488;-63;-28;14;1;882719391
-1.298078;0.982831936;0.052704;-0.013664;-210;-28;-7;1;882730782
-1.286827;0.981856;0.049776;-0.018544;-105;-21;-7;1;882742033
-1.275678;0.980879936;0.041968;-0.018544;21;0;-14;1;882753182
-1.264926;0.984784;0.042944;-0.011712;21;28;-35;1;882763934
-1.253935;0.984784;0.04392;0.0;35;49;-63;1;882774925
-1.232508;0.98576;0.052704;0.013664;154;0;-84;1;882796352
-1.220040;0.983808;0.056608;0.012688;280;-21;-91;1;882808820
-1.170350;0.98576;0.065392;-0.018544;112;-112;-56;1;882858510
-1.149524;0.984784;0.064416;-0.0244;112;-42;-14;1;882879336
-1.131531;0.98576;0.051728;-0.012688;7;-7;-21;1;882897329
-1.120941;0.98576;0.045872;-0.007808;-49;-7;-42;1;882907919
-1.093333;0.981856;0.046848;0.00488;147;7;-49;1;882935527
-1.082934;0.982831936;0.049776;0.008784;140;-7;-63;1;882945926
-1.071971;0.979904;0.056608;0.010736;154;-35;-77;1;882956889
-1.055334;0.984784;0.061488;-0.006832;245;-84;-77;1;882973526
-1.044148;0.98576;0.063439992;-0.018544;245;-84;-70;1;882984712
-1.031547;0.984784;0.067343992;-0.022448;189;-70;-77;1;882997313
-1.020478;0.981856;0.067343992;-0.032208;14;0;-49;1;883008382
-1.009800;0.98576;0.066368;-0.031232;70;35;-14;1;883019060
-0.997303;0.98576;0.064416;-0.028304;-14;63;-14;1;883031557
-0.984212;0.984784;0.065392;-0.016592;-168;84;-21;1;883044648
-0.964021;0.982831936;0.062464;0.006832;-77;105;7;1;883064839
-0.953042;0.981856;0.057584;0.010736;-168;63;7;1;883075818
-0.931179;0.982831936;0.050752;0.002928;-84;14;0;1;883097681
-0.913908;0.984784;0.050752;-0.011712;-35;-28;-21;1;883114952
-0.890891;0.981856;0.05368;-0.028304;-14;7;-35;1;883137969
-0.878561;0.984784;0.056608;-0.027328;-49;70;-42;1;883150299
-0.866836;0.98576;0.05856;-0.016592;-35;112;-49;1;883162024
-0.853815;0.97892796;0.064416;-0.006832;-105;119;-49;1;883175045
-0.833656;0.982831936;0.066368;0.013664;-91;105;0;1;883195204
-0.822365;0.983808;0.059536;0.018544;-98;70;7;1;883206495
-0.802297;0.982831936;0.056608;0.01464;-140;0;7;1;883226563
-0.791949;0.980879936;0.051728;0.008784;-14;-35;14;1;883236911
-0.780901;0.98576;0.052704;-0.000976;21;-56;7;1;883247959
-0.754052;0.984784;0.047824;-0.01464;14;-28;-49;1;883274808
-0.741996;0.982831936;0.046848;-0.012688;56;-14;-49;1;883286864
-0.723659;0.984784;0.054656;-0.00488;203;28;-70;1;883305201
-0.712080;0.982831936;0.059536;0.000976;147;28;-77;1;883316780
-0.700296;0.983808;0.064416;0.010736;105;7;-70;1;883328564
-0.666133;0.981856;0.057584;0.001952;126;-105;-42;1;883362727
-0.643813;0.984784;0.05368;-0.01464;133;-119;-28;1;883385047
-0.627677;0.98576;0.044896;-0.027328;140;-70;-42;1;883401183
-0.616581;0.984784;0.045872;-0.023424;168;-35;-63;1;883412279
-0.603286;0.981856;0.0;;1.813;0.294;-0.147;1;883425574
-0.586437;0.983808;0.056608;-0.003904;217;14;-105;1;883442423
-0.575823;0.983808;0.062464;0.00488;210;14;-105;1;883453037
-0.564171;0.98576;0.063439992;0.005856;196;0;-98;1;883464689
-0.531760;0.981856;0.069296;-0.000976;154;-77;-49;1;883497100
-0.516349;0.98576;0.063439992;-0.01952;-21;-77;-28;1;883512511
-0.504833;0.982831936;0.056608;-0.032208;-133;-49;-28;1;883524027
-0.472918;0.986736;0.05368;-0.026352;-49;63;-42;1;883555942
-0.440382;0.984784;0.054656;0.000976;-42;133;-42;1;883588478
-0.429604;0.982831936;0.05368;0.012688;-42;119;-56;1;883599256
-0.418541;0.981856;0.060512;0.017568;-21;84;-70;1;883610319
-0.400182;0.980879936;0.070272;0.008784;14;7;-49;1;883628678
-0.385612;0.984784;0.066368;-0.008784;-119;-42;0;1;883643248
-0.354042;0.982831936;0.057584;-0.023424;-42;14;21;1;883674818
-0.340812;0.980879936;0.054656;-0.022448;-126;35;7;1;883688048
-0.303803;0.98576;0.049776;0.010736;-168;105;-21;1;883725057
-0.290556;0.98576;0.05368;0.016592;-21;84;-35;1;883738304
-0.279800;0.97892796;0.057584;0.021472;21;49;-42;1;883749060
-0.262898;0.98576;0.055632;0.01464;119;-28;-14;1;883765962
-0.250834;0.983808;0.056608;0.006832;35;-56;-28;1;883778026
-0.223656;0.983808;0.056608;-0.016592;126;-63;-35;1;883805204
-0.211366;0.975024;0.059536;-0.016592;-49;-42;-63;1;883817494
-0.197664;0.986736;0.061488;-0.007808;-119;-42;-56;1;883831196
-0.161516;0.979904;0.049776;-0.003904;175;-7;-56;1;883867344
-0.147885;0.981856;0.045872;-0.00488;189;-42;-42;1;883880975
-0.133792;0.984784;0.035136;-0.00976;231;-35;-70;1;883895068
-0.113858;0.982831936;3337.0625;7531;17081;0.9585333;-0.047926664;-0.242692468;883915002
-0.100105;0.975024;0.066368;0.000976;189;-35;-161;1;883928755
-0.088823;0.989663936;0.07808;0.00488;329;-56;-98;1;883940037
-0.077942;0.975999936;0.077104;-0.005856;427;-70;-70;1;883950918
-0.063972;0.979904;0.061488;-0.0244;126;-77;-42;1;883964888
-0.051266;0.986736;0.055632;-0.027328;224;-49;-77;1;883977594
-0.040790;0.976976;0.056608;-0.026352;259;-14;-49;1;883988070
-0.028587;0.992592;0.051728;-0.025376;231;28;-35;1;884000273
-0.012388;1.056032;0.031232;-0.042944;1043;189;35;1;884016472
0.000000;1.1741279;0.033184;-0.025376;1379;322;-49;1;884028860
0.016095;1.26392;0.033184;-0.020496;1666;224;-91;1;884044955
0.027166;1.619184;0.035136;-0.033184;2002;399;-98;1;884056026
0.038569;1.86416;0.05368;0.040992;1953;546;-91;1;884067429
0.051121;2.151104;0.055632;0.015616;2541;336;-259;1;884079981
0.066409;2.423408;0.059536;-0.010736;3318;350;-189;1;884095269
0.077789;3.0988;0.040992;0.040016;3822;91;-420;1;884106649
0.090698;3.490176;0.045872;-0.050752;3535;182;-490;1;884119558
0.101628;3.810304;0.077104;-0.06832;3150;-35;-651;1;884130488
0.112057;4.005504;0.13176;-0.062464;2002;49;-574;1;884140917
0.123370;4.268048;0.159088;-0.089792;707;84;-581;1;884152230
0.145965;4.749216;0.0732;-0.007808;1792;-70;-126;1;884174825
0.172891;5.368;0.152256;-0.000976;4893;-203;-49;1;884201751
0.196067;5.8364796;0.120048;-0.084912;4830;7;203;1;884224927
0.210032;6.492352;0.11224;-0.082959992;3773;133;343;1;884238892
0.244873;8.245248;0.149328;-0.15616;-322;119;336;1;884273733
0.257621;8.094944;0.21959999;-0.040992;-1547;-91;-231;1;884286481
0.272163;7.8363037;0.15030399;-0.121024;-1799;-588;595;1;884301023
0.284946;7.996368;0.281088;-0.262544;-2268;-126;539;1;884313806
0.308424;7.7709116;0.28401598;-0.243999984;-5901;2198;518;1;884337284
0.319492;7.659648;0.31524798;-0.201056;-7147;1435;728;1;884348352
0.345312;7.322928;0.35624;-0.324032;-10962;3367;994;1;884374172
0.375431;6.649488;0.425535968;-0.368928;-15862;5145;1925;1;884404291
0.386141;6.4406236;0.455791968;-0.368928;-18081;5229;2268;1;884415001
0.406029;6.0267996;0.509472;-0.350384;-22190;6482;3220;1;884434889
0.417493;5.888208;0.511424;-0.294752;-25046;6601;3570;1;884446353
0.436060;5.71448;0.503616;-0.3416;-29911;7098;4739;1;884464920
0.447454;5.622736;0.53875196;-0.411872;-32179;7455;5012;1;884476314
0.465949;5.497808;0.61;-0.388448;-37156;7847;6398;1;884494809
