t_s;heading;roll;pitch;ax;ay;az;uptime_us
-29.963547;334.0;7556;17100;0.9483361;-0.03263092;-0.247791052;854065313
-29.927627;334.0;7556;17100;0.952415;-0.034670352;-0.24677134;854101233
-29.906176;334.0;7556;17100;0.952415;-0.042828084;-0.24677134;854122684
-29.884184;334.0;7556;17100;0.94935584;-0.0438478;-0.24983048;854144676
-29.857262;334.0;7556;17106;0.950375536;-0.046906948;-0.24371218;854171598
-29.827465;334.0;7556;17112;0.9513953;-0.036709784;-0.248810768;854201395
-29.796990;333.9375;7562;17112;0.952415;-0.02753234;-0.248810768;854231870
-29.775108;333.9375;7562;17112;0.9513953;-0.02753234;-0.25186992;854253752
-29.753218;333.9375;7562;17112;0.9534347;-0.036709784;-0.24677134;854275642
-29.727101;333.9375;7562;17112;0.950375536;-0.04588723;-0.24677134;854301759
-29.696831;333.9375;7562;17112;0.952415;-0.044867516;-0.24167276;854332029
-29.672363;333.9375;7562;17112;0.94935584;-0.031611204;-0.25390936;854356497
-29.636577;333.9375;7562;17112;0.952415;-0.02447319;-0.2579882;854392283
-29.603185;333.9375;7562;17106;0.950375536;-0.0387492184;-0.2508502;854425675
-29.576297;334.0;7562;17100;0.952415;-0.04078865;-0.242692468;854452563
-29.545767;334.0;7562;17100;0.9534347;-0.04588723;-0.24677134;854483093
-29.515782;334.0;7562;17100;0.952415;-0.0377295;-0.248810768;854513078
-29.486119;334.0;7562;17100;0.9513953;-0.02753234;-0.2579882;854542741
-29.441465;334.0625;7562;17093;0.950375536;-0.029571772;-0.242692468;854587395
-29.415000;334.0625;7562;17087;0.952415;-0.05710411;-0.23351502;854613860
-29.392664;334.0625;7562;17087;0.9513953;-0.05200553;-0.2447319;854636196
-29.366523;334.0625;7562;17093;0.9483361;-0.036709784;-0.25594878;854662337
-29.336769;334.0;7562;17100;0.9513953;-0.022433758;-0.25186992;854692091
-29.310725;334.0;7562;17100;0.9534347;-0.028552056;-0.24677134;854718135
-29.284973;334.0625;7562;17106;0.952415;-0.0377295;-0.23453474;854743887
-29.261757;334.0625;7562;17106;0.9513953;-0.04894638;-0.24677134;854767103
-29.234798;334.0;7562;17112;0.9483361;-0.05200553;-0.25492908;854794062
-29.213386;334.0;7562;17118;0.9544544;-0.026512622;-0.2508502;854815474
-29.184755;334.0;7562;17125;0.9513953;-0.017335176;-0.2508502;854844105
-29.163018;334.0;7562;17131;0.9544544;-0.018354892;-0.24983048;854865842
-29.138315;334.0;7562;17131;0.94935584;-0.028552056;-0.25288964;854890545
-29.113823;334.0625;7562;17118;0.9513953;-0.044867516;-0.247791052;854915037
-29.092062;334.0625;7556;17118;0.94935584;-0.049966096;-0.25390936;854936798
-29.069993;334.0625;7556;17118;0.950375536;-0.047926664;-0.2508502;854958867
-29.043761;334.0;7556;17118;0.950375536;-0.029571772;-0.24371218;854985099
-29.020942;334.0625;7556;17118;0.9544544;-0.021414042;-0.24677134;855007918
-28.990577;334.0625;7556;;207;187;3943;855038283
-28.956231;334.125;7556;17106;0.9473164;-0.047926664;-0.25288964;855072629
-28.931702;334.125;7556;17100;0.950375536;-0.05506468;-0.24065304;855097158
-28.906486;334.125;7556;17100;0.952415;-0.04690;3939;855122374
-28.871622;334.0625;7556;17106;0.950375536;-0.03263092;-0.24983048;855157238
-28.849689;334.0625;7556;17106;0.9513953;-0.025492906;-0.25390936;855179171
-28.823169;334.0625;7556;17106;0.9513953;-0.028552056;-0.25288964;855205691
-28.798913;334.125;7556;17112;0.9513953;-0.047926664;-0.24167276;855229947
-28.748136;334.0625;7556;17112;0.950375536;-0.044867516;-0.24677134;855280724
-28.711878;334.0;7550;17125;0.952415;-0.023453474;-0.25492908;855316982
-28.689243;334.0;7550;17131;0.94935584;-0.022433758;-0.2630868;855339617
-28.665523;334.0625;7550;17131;0.9513953;-0.026512622;-0.25390936;855363337
-28.642053;334.0625;7550;17131;0.9513953;-0.039768936;-0.237593884;855386807
-28.617946;334.0625;7550;17125;0.950375536;-0.04894638;-0.2447319;855410914
-28.591670;334.0625;7550;17125;0.9513953;-0.042828084;-0.25492908;855437190
-28.548194;334.0625;7550;17131;0.9513953;-0.017335176;-0.25594878;855480666
-28.511023;334.125;7550;17125;0.9544544;-0.029571772;-0.24677134;855517837
-28.457381;334.125;7550;17112;0.94935584;-0.05200553;-0.24983048;855571479
-28.430768;334.125;7550;17106;0.9473164;-0.044867516;-0.25594878;855598092
-28.399878;334.125;7550;17112;0.9534347;-0.022433758;-0.247791052;855628982
-28.377273;334.125;7550;17112;0.95547416;-0.02753234;-0.237593884;855651587
-28.348666;334.1875;7550;17112;0.952415;-0.047926664;-0.23555446;855680194
-28.320375;334.1875;7550;17106;0.950375536;-0.053025244;-0.247791052;855708485
-28.297516;334.125;7550;17106;0.94935584;-0.04588723;-0.25594878;855731344
-28.270321;334.125;7550;17118;0.94935584;-0.036709784;-0.2579882;855758539
-28.246414;334.125;7550;17125;0.95649384;-0.018354892;-0.2386136;855782446
-28.219797;334.125;7550;17125;0.9544544;-0.025492906;-0.23963332;855809063
-28.197504;334.125;7550;17125;0.950375536;-0.044867516;-0.25288964;855831356
-28.159977;334.125;7550;17125;0.94935584;-0.050985812;-0.2579882;855868883
-28.129551;334.125;7543;17131;0.950375536;-0.0387492184;-0.24983048;855899309
-28.099392;334.0625;7543;17137;0.9544544;-0.0193746092;-0.242692468;855929468
-28.076346;334.125;7543;17137;0.952415;-0.026512622;-0.2508502;855952514
-28.055366;334.125;7543;17137;0.9483361;-0.036709784;-0.25288964;855973494
-28.034139;334.125;7543;17131;0.950375536;-0.047926664;-0.25492908;855994721
-28.008621;334.125;7543;17125;0.9483361;-0.04894638;-0.25288964;856020239
-27.966041;334.125;7543;17125;0.9534347;-0.030591488;-0.24167276;856062819
-27.938852;334.1875;7543;17125;0.9513953;-0.025492906;-0.24167276;856090008
-27.915317;334.1875;7543;17125;0.9513953;-0.03569007;-0.25492908;856113543
-27.888589;334.1875;7543;17118;0.94935584;-0.042828084;-0.25288964;856140271
-27.858033;334.25;7543;17118;0.9513953;-0.04894638;-0.24371218;856170827
-27.828397;334.1875;7543;17112;0.952415;-0.04078865;-0.237593884;856200463
-27.807188;334.1875;7543;17118;0.952415;-0.031611204;-0.24371218;856221672
-27.784578;334.1875;7543;17118;0.9513953;-0.026512622;-0.25288964;856244282
-27.757822;334.1875;7543;17125;0.9483361;-0.033650636;-0.2579882;856271038
-27.727970;334.1875;7543;17125;0.9513953;-0.039768936;-0.25186992;856300890
-27.699480;334.1875;7543;17125;0.9513953;-0.044867516;-0.23657418;856329380
-27.676556;334.1875;7543;17125;0.9513953;-0.0387492184;-0.2508502;856352304
-27.655177;334.1875;7543;17125;0.9513953;-0.033650636;-0.2569685;856373683
-27.627644;334.1875;7543;17125;0.9513953;-0.028552056;-0.25594878;856401216
-27.603225;334.1875;7543;17125;0.950375536;-0.03263092;-0.25186992;856425635
-27.577456;334.1875;7543;17125;0.950375536;-0.03569007;-0.2508502;856451404
-27.556347;334.1875;7543;17118;0.9513953;-0.0438478;-0.242692468;856472513
-27.526649;334.1875;7543;17125;0.952415;-0.042828084;-0.2447319;856502211
-27.499911;334.1875;7543;17125;0.9513953;-0.0377295;-0.25390936;856528949
-27.438863;334.25;7543;17118;0.952415;-0.033650636;-0.2447319;856589997
-27.416155;334.25;7543;17112;0.9513953;-0.04078865;-0.2447319;856612705
-27.393711;334.25;7543;17112;0.952415;-0.04894638;-0.23657418;856635149
-27.366544;334.3125;7543;17112;0.9513953;-0.049966096;-0.24575162;856662316
-27.345169;334.25;7543;17112;0.950375536;-0.039768936;-0.24983048;856683691
-27.315956;334.25;7543;17112;0.9513953;-0.029571772;-0.25594878;856712904
-27.285901;334.25;7543;17112;0.952415;-0.031611204;-0.242692468;856742959
-27.264205;334.25;7543;17112;0.952415;-0.04588723;-0.242692468;856764655
-27.235896;334.25;7543;17112;0.94935584;-0.05200553;-0.24167276;856792964
-27.184197;334.1875;7543;17131;0.950375536;-0.030591488;-0.2579882;856844663
-27.151737;334.1875;7543;17137;0.9534347;-0.021414042;-0.25186992;856877123
-27.125206;334.1875;7543;17137;0.952415;-0.026512622;-0.247791052;856903654
-27.098502;334.1875;7543;17137;0.9513953;-0.042828084;-0.248810768;856930358
-27.074843;334.1875;7543;17137;0.9534347;-0.046906948;-0.24983048;856954017
-27.052604;334.1875;7543;17137;0.9483361;-0.0377295;-0.25288964;856976256
-27.021747;334.1875;7543;17137;0.952415;-0.025492906;-0.25492908;857007113
-26.999136;334.1875;7543;17137;0.9513953;-0.0193746092;-0.247791052;857029724
-26.974601;334.25;7543;17131;0.9534347;-0.02447319;-0.24371218;857054259
-26.882083;334.3125;7543;17112;0.952415;-0.041808368;-0.24371218;857146777
-26.853997;334.3125;7543;17112;0.9544544;-0.031611204;-0.23657418;857174863
-26.831993;334.3125;7543;17112;0.9534347;-0.030591488;-0.2386136;857196867
-26.799260;334.3125;7543;17112;0.950375536;-0.041808368;-0.24983048;857229600
-26.773879;334.3125;7543;17118;0.950375536;-0.049966096;-0.24983048;857254981
-26.746758;334.3125;7543;17118;0.9483361;-0.04894638;-0.24677134;857282102
-26.717832;334.3125;7543;17125;0.9513953;-0.0387492184;-0.247791052;857311028
-26.696081;334.3125;7543;17131;0.9534347;-0.028552056;-0.2386136;857332779
-26.673028;334.25;7543;17137;0.9534347;-0.026512622;-0.2447319;857355832
-26.649754;334.25;7543;17137;0.9483361;-0.03263092;-0.25492908;857379106
-26.622864;334.25;7543;17137;0.9483361;-0.0377295;-0.25390936;857405996
-26.601308;334.25;7543;17137;0.9513953;-0.0387492184;-0.24983048;857427552
-26.573085;334.25;7543;17137;0.952415;-0.034670352;-0.24575162;857455775
-26.550461;334.25;7543;17137;0.9513953;-0.02753234;-0.24575162;857478399
-26.529361;334.25;7543;17137;0.952415;-0.025492906;-0.248810768;857499499
-26.450433;334.3125;7543;17118;0.9534347;-0.039768936;-0.2447319;857578427
-26.389030;334.375;7543;17112;0.952415;-0.04078865;-0.24065304;857639830
-26.362026;334.375;7543;17112;0.9483361;-0.036709784;-0.248810768;857666834
-26.339633;334.375;7543;17112;0.952415;-0.0377295;-0.24983048;857689227
-26.310392;334.375;7543;17112;0.9513953;-0.041808368;-0.242692468;857718468
-26.280086;334.375;7543;17112;0.950375536;-0.047926664;-0.2386136;857748774
-26.250917;334.375;7543;17118;0.9513953;-0.046906948;-0.2447319;857777943
-26.229288;334.3125;7543;17125;0.950375536;-0.0387492184;-0.25288964;857799572
-26.199115;334.3125;7543;17131;0.94935584;-0.033650636;-0.24575162;857829745
-26.149181;334.3125;7543;17143;0.94935584;-0.031611204;-0.2508502;857879679
-26.120123;334.3125;7543;17143;0.950375536;-0.033650636;-0.25288964;857908737
-26.088943;334.25;7543;17137;0.9513953;-0.030591488;-0.25288964;857939917
-26.060651;334.25;7543;17137;0.952415;-0.030591488;-0.24677134;857968209
-26.037418;334.3125;7543;17813;0.294;-0.049;1;857991442
-25.999791;334.3125;7543;17143;0.950375536;-0.031611204;-0.247791052;858029069
-25.977210;334.3125;7543;17137;0.950375536;-0.0377295;-0.25492908;858051650
-25.943844;334.375;7543;17131;0.9513953;-0.0387492184;-0.24677134;858085016
-25.909119;334.375;7543;17131;0.9544544;-0.03569007;-0.24065304;858119741
-25.886659;334.375;7543;17131;0.9513953;-0.0387492184;-0.24167276;858142201
-25.859720;334.375;7543;17125;0.952415;-0.04078865;-0.24983048;858169140
-25.786811;334.375;7543;17125;0.9544544;-0.041808368;-0.23963332;858242049
-25.759417;334.375;7543;17125;0.9534347;-0.0387492184;-0.237593884;858269443
-25.728914;334.375;7543;17131;0.9513953;-0.036709784;-0.247791052;858299946
-25.706499;334.375;7543;17125;0.94935584;-0.036709784;-0.25492908;858322361
-25.685021;334.375;7543;17125;0.952415;-0.036709784;-0.25288964;858343839
-25.658928;334.3125;7543;17125;0.9513953;-0.0377295;-0.24677134;858369932
-25.628396;334.3125;7543;17125;0.952415;-0.03569007;-0.24371218;858400464
-25.596772;334.3125;7543;17125;0.9513953;-0.030591488;-0.25492908;858432088
-25.574754;334.3125;7543;17125;0.94935584;-0.031611204;-0.25594878;858454106
-25.543295;334.3125;7543;17125;0.94935584;-0.031611204;-0.2508502;858485565
-25.517610;334.3125;7543;17125;0.9513953;-0.03263092;-0.2447319;858511250
-25.487845;334.3125;7543;17125;0.952415;-0.0377295;-0.24371218;858541015
-25.435855;334.375;7543;17112;0.94935584;-0.034670352;-0.25186992;858593005
-25.407649;334.375;7543;17112;0.950375536;-0.0377295;-0.25186992;858621211
-25.386192;334.375;7543;17112;0.950375536;-0.0377295;-0.24371218;858642668
-25.351968;334.4375;7543;17106;0.952415;-0.04078865;-0.242692468;858676892
-25.327077;334.4375;7543;17106;0.9513953;-0.041808368;-0.24371218;858701783
-25.296879;334.4375;7543;17106;0.952415;-0.042828084;-0.24983048;858731981
-25.273145;334.4375;7543;17106;0.952415;-0.04078865;-0.24371218;858755715
-25.246738;334.4375;7543;17106;0.9513953;-0.039768936;-0.24677134;858782122
-25.216529;334.4375;7543;17112;0.9513953;-0.036709784;-0.24167276;858812331
-25.190723;334.4375;7543;17112;0.9513953;-0.036709784;-0.25186992;858838137
-25.166326;334.4375;7543;17112;0.950375536;-0.0377295;-0.25186992;858862534
-25.140449;334.375;7543;17112;0.950375536;-0.031611204;-0.25186992;858888411
-25.115989;334.375;7543;17112;0.9544544;-0.03263092;-0.2447319;858912871
-25.091226;334.375;7543;17112;0.9534347;-0.03263092;-0.2447319;858937634
-25.065817;334.375;7543;17112;0.952415;-0.031611204;-0.24677134;858963043
-25.044015;334.375;7543;17112;0.9513953;-0.030591488;-0.25288964;858984845
-25.006033;334.375;7543;17112;0.950375536;-0056;-0.25390936;859022827
-24.981025;334.4375;7543;17106;0.952415;-0.034670352;-0.24575162;859047835
-24.955502;334.4375;7543;17100;0.952415;-0.0387492184;-0.2447319;859073358
-24.914990;334.4375;7543;17093;0.952415;-0.041808368;-0.24371218;859113870
-24.890779;334.4375;7543;17087;0.9534347;-0.0377295;-0.24677134;859138081
-24.865162;334.5;7543;17081;0.952415;-0.0377295;-0.247791052;859163698
-24.841228;334.5;7543;17081;0.9513953;-0.0438478;-0.24677134;859187632
-24.815047;334.5;7543;17081;0.9513953;-0.0438478;-0.242692468;859213813
-24.792603;334.5;7543;17081;0.9513953;-0.0438478;-0.2386136;859236257
-24.770822;334.5;7543;17081;0.952415;-0.04078865;-0.23963332;859258038
-24.740875;334.5;7543;17087;0.950375536;-0.0377295;-0.247791052;859287985
-24.714767;334.5;7543;17087;0.950375536;-0.0377295;-0.248810768;859314093
-24.691578;334.5;7543;17093;0.9534347;-0.034670352;-0.24575162;859337282
-24.665378;334.4375;7543;17100;0.952415;-0.03569007;-0.24575162;859363482
-24.640718;334.4375;7543;17106;0.9513953;-0.033650636;-0.24983048;859388142
-24.612136;334.4375;7543;17106;0.9544544;-0.03263092;-0.25390936;859416724
-24.583756;334.375;7543;17106;0.950375536;-0.031611204;-0.25288964;859445104
-24.562297;334.375;7543;17106;0.9534347;-0.029571772;-0.24983048;859466563
-24.540105;334.4375;7543;17106;0.9513953;-0.028552056;-0.24065304;859488755
-24.509710;334.4375;7543;17106;0.94935584;-0.03263092;-0.25288964;859519150
-24.473931;334.4375;7543;17100;0.94935584;-0.036709784;-0.2630868;859554929
-24.440676;334.4375;7543;17093;0.952415;-0.0377295;-0.247791052;859588184
-24.402807;334.5;7550;17087;0.9544544;-0.031611204;-0.23351502;859626053
-24.380160;334.5;7550;17081;0.952415;-0.041808368;-0.24575162;859648700
-24.352685;334.5;7550;17075;0.94935584;-0.046906948;-0.2579882;859676175
-24.328878;334.5625;7550;17075;0.94935584;-0.047926664;-0.26002764;859699982
-24.302727;334.5625;7550;17075;0.9513953;-0.041808368;-0.24677134;859726133
-24.281313;334.5625;7550;17075;0.9534347;-0.04078865;-0.22841644;859747547
-24.254427;334.5625;7550;17075;0.95547416;-0.036709784;-0.2314756;859774433
-24.231173;334.5625;7543;17081;0.950375536;-0.039768936;-0.25390936;859797687
-24.208572;334.5625;7543;17081;0.9473164;-0.04078865;-0.26206708;859820288
-24.185798;334.5625;7543;17087;0.950375536;-0.0377295;-0.25390936;859843062
-24.151460;334.5625;7543;17093;0.9544544;-0.034670352;-0.23351502;859877400
-24.127634;334.5625;7543;17100;0.9534347;-0.03569007;-0.232495316;859901226
-24.101421;334.5;7543;17106;0.952415;-0.03263092;-0.24677134;859927439
-24.071094;334.5;7543;17106;0.94935584;-0.031611204;-0.26716566;859957766
-24.049122;334.5;7543;17106;0.9513953;-0.028552056;-0.26104736;859979738
-24.021471;334.5;7543;17106;0.9534347;-0.029571772;-0.24371218;860007389
-24.000228;334.5;7543;17100;0.9544544;-0.03263092;-0.237593884;860028632
-23.978234;334.5;7543;17100;0.952415;-0.034670352;-0.2447319;860050626
-23.940439;334.5;7543;17093;0.9462967;-0.0377295;-0.26716566;860088421
-23.918172;334.5625;7543;17087;0.950375536;-0.036709784;-0.25594878;860110688
-23.891877;334.5625;7543;17087;0.952415;-0.0377295;-0.24575162;860136983
-23.848328;334.625;7543;17075;0.952415;-0.04078865;-0.24371218;860180532
-23.820490;334.625;7543;17075;0.94935584;-0.044867516;-0.25390936;860208370
-23.789398;334.625;7543;17081;0.950375536;-0.042828084;-0.25390936;860239462
-23.759863;334.625;7550;17075;0.952415;-0.041808368;-0.237593884;860268997
-23.738139;334.625;7550;17075;0.9534347;-0.0377295;-0.226377008;860290721
-23.709394;334.625;7543;17075;0.9513953;-0.0387492184;-0.24575162;860319466
-23.684863;334.625;7543;17075;0.9513953;-0.039768936;-0.25900792;860343997
-23.659266;334.5625;7543;17081;0.950375536;-0.03569007;-0.2569685;860369594
-23.637155;334.5625;7543;1;0.9513953;-0.03263092;-0.2447319;860391705
-23.609212;334.5625;7543;17081;0.9534347;-0.03263092;-0.237593884;860419648
-23.583179;334.5;7543;17081;0.952415;-0.031611204;-0.24371218;860445681
-23.559154;334.5;7543;17081;0.9483361;-0.034670352;-0.2569685;860469706
-23.515340;334.5;7543;17081;0.94935584;-0.029571772;-0.25390936;860513520
-23.489024;334.5;7543;17081;0.9513953;-0.029571772;-0.24677134;860539836
-23.418169;334.5625;7537;17068;0.950375536;-0.0387492184;-0.25900792;860610691
-23.396318;334.5625;7543;17068;0.9483361;-0.036709784;-0.2569685;860632542
-23.374097;334.625;7543;17062;0.9513953;-0.039768936;-0.2447319;860654763
-23.348212;334.625;7543;17068;0.9534347;-0.036709784;-0.24065304;860680648
-23.318101;334.6875;7543;17068;0.952415;-0.039768936;-0.237593884;860710759
-23.295473;334.6875;7543;17068;0.9513953;-0.044867516;-0.25288964;860733387
-23.268138;334.6875;7543;17068;0.950375536;-0.0438478;-0.25492908;860760722
-23.214017;334.6875;7543;17075;0.9534347;-0.036709784;-0.23351502;860814843
-23.185731;334.6875;7543;17075;0.9544544;-0.033650636;-0.23657418;860843129
-23.157561;334.625;7543;17075;0.9513953;-0.036709784;-0.247791052;860871299
-23.127310;334.625;7543;17068;0.950375536;-0.036709784;-0.2569685;860901550
-23.105230;334.625;7543;;42;84;3943;860923630
-23.082349;334.625;7543;17075;0.952415;-0.031611204;-0.2386136;860946511
-23.057233;334.5625;7543;17075;0.952415;-0.034670352;-0.24575162;860971627
-23.035189;334.5625;7537;17075;0.9513953;-0.030591488;-0.2569685;860993671
-22.976637;334.5625;7537;17075;0.950375536;-0.030591488;-0.25288964;861052223
-22.935873;334.625;7543;17075;0.9544544;-0.0387492184;-0.23555446;861092987
-22.913243;334.625;7543;17068;0.950375536;-0.0387492184;-0.248810768;861115617
-22.886274;334.625;7543;17068;0.9473164;-0.036709784;-0.2630868;861142586
-22.865193;334.625;7543;17075;0.950375536;-0.03263092;-0.25492908;861163667
-22.843170;334.6875;7543;17075;0.9534347;-0.03263092;-0.248810768;861185690
-22.820924;334.6875;7550;17068;0.9544544;-0.03569007;-0.22841644;861207936
-22.795836;334.75;7550;17068;0.95547416;-0.039768936;-0.22841644;861233024
-22.766000;334.75;7550;17062;0.952415;-0.047926664;-0.2447319;861262860
-22.735703;334.75;7550;17062;0.9483361;-0.041808368;-0.25900792;861293157
-22.705590;334.75;7550;17062;0.9534347;-0.031611204;-0.2447319;861323270
-22.682436;334.75;7550;17062;0.9544544;-0.030591488;-0.22739672;861346424
-22.647037;334.75;7543;17068;0.952415;-0.039768936;-0.23657418;861381823
-22.624706;334.75;7543;17068;0.950375536;-0.044867516;-0.2508502;861404154
-22.593297;334.6875;7543;17068;0.9513953;-0.0387492184;-0.2630868;861435563
-22.538964;334.6875;7543;17075;0.9534347;-0.026512622;-0.23555446;861489896
-22.504821;334.6875;7543;17075;0.9513953;-0.03263092;-0.24983048;861524039
-22.470665;334.6875;7537;17081;0.9473164;-0.042828084;-0.26614594;861558195
-22.422756;334.6875;7543;17075;0.952415;-0.03263092;-0.23555446;861606104
-22.400858;334.6875;7543;17075;0.9544544;-0.026512622;-0.2386136;861628002
-22.379115;334.6875;7543;17081;0.952415;-0.02753234;-0.24677134;861649745
-22.353726;334.75;7543;17081;0.950375536;-0.028552056;-0.25390936;861675134
-22.329436;334.75;7543;17075;0.950375536;-0.041808368;-0.25900792;861699424
-22.293988;334.8125;7543;17075;0.952415;-0.046906948;-0.242692468;861734872
-22.260551;334.8125;7550;17068;0.95547416;-0.033650636;-0.23045588;861768309
-22.231656;334.8125;7543;17068;0.952415;-0.030591488;-0.248810768;861797204
-22.201702;334.8125;7543;17068;0.94935584;-0.039768936;-0.25900792;861827158
-22.178589;334.8125;7543;17068;0.950375536;-0.0438478;-0.248810768;861850271
-22.153056;334.8125;7543;17068;0.9544544;-0.04588723;-0.23555446;861875804
-22.128039;334.75;7543;17068;0.95547416;-0.041808368;-0.22841644;861900821
-22.100789;334.75;7543;17068;0.952415;-0.036709784;-0.25186992;861928071
-22.078140;334.75;7543;17068;0.94935584;-0.03263092;-0.2569685;861950720
-22.052631;334.75;7537;17068;0.9513953;-0.03263092;-0.25900792;861976229
-22.022087;334.75;7543;17068;0.950375536;-0.03569007;-0.24677134;862006773
-21.999625;334.75;7543;17068;0.952415;-0.04078865;-0.24167276;862029235
-21.970507;334.75;7543;17068;0.950375536;-0.042828084;-0.24575162;862058353
-21.926845;334.6875;7537;17068;0.950375536;-0.03263092;-0.26002764;862102015
-21.900524;334.75;7537;17075;0.952415;-0.028552056;-0.25186992;862128336
-21.879038;334.75;7537;17075;0.950375536;-0.026512622;-0.2447319;862149822
-21.851422;334.75;7537;17075;0.9544544;-0.031611204;-0.237593884;862177438
-21.828975;334.8125;7537;17068;0.9534347;-0.047926664;-0.24371218;862199885
-21.798035;334.8125;7537;17068;0.94935584;-0.044867516;-0.25288964;862230825
-21.770745;334.8125;7537;17068;0.9513953;-0.036709784;-0.247791052;862258115
-21.713977;334.8125;7537;17068;0.952415;-0.031611204;-0.2447319;862314883
-21.690710;334.8125;7537;17062;0.9513953;-0.036709784;-0.24677134;862338150
-21.669201;334.8125;7537;;65;104;3942;862359659
-21.616547;334.8125;7537;17062;0.952415;-0.03569007;-0.242692468;862412313
-21.590128;334.8125;7537;17062;0.9513953;-0.03263092;-0.24983048;862438732
-21.540479;334.8125;7537;17062;0.950375536;-0.03569007;-0.25492908;862488381
-21.517806;334.8125;7537;17068;0.950375536;-0.047926664;-0.24677134;862511054
-21.496160;334.875;7537;17068;0.950375536;-0.0438478;-0.24371218;862532700
-21.449082;334.8125;7537;17062;0.9513953;-0.03263092;-0.2508502;862579778
-21.422566;334.8125;7537;17062;0.9513953;-0.028552056;-0.25492908;862606294
-21.389507;334.8125;7537;17062;0.9544544;-0.031611204;-0.24575162;862639353
-21.359759;334.875;7537;17068;0.9534347;-0.0387492184;-0.24167276;862669101
-21.337549;334.875;7537;17068;0.94935584;-0.0438478;-0.2508502;862691311
-21.316330;334.875;7537;17068;0.950375536;-0.0377295;-0.25186992;862712530
-21.289633;334.875;7537;17068;0.9513953;-0.031611204;-0.24983048;862739227
-21.259004;334.875;7537;17068;0.952415;-0.03263092;-0.2447319;862769856
-21.235761;334.875;7537;17068;0.9534347;-0.03569007;-0.23657418;862793099
-21.208707;334.875;7537;17062;0.950375536;-0.04588723;-0.2447319;862820153
-21.178331;334.875;7537;17062;0.950375536;-0.047926664;-0.25390936;862850529
-21.148869;334.875;7537;17062;0.9513953;-0.0377295;-0.25288964;862879991
-21.124905;334.875;7537;17062;0.9544544;-0.029571772;-0.24677134;862903955
-21.098190;334.875;7537;17062;0.9534347;-0.03569007;-0.24677134;862930670
-21.075509;334.875;7537;17062;0.950375536;-0.036709784;-0.24167276;862953351
-21.048487;334.875;7537;17062;0.950375536;-0.04078865;-0.24983048;862980373
-21.027214;334.875;7537;17062;0.950375536;-0.041808368;-0.25492908;863001646
-20.997887;334.875;7537;17062;0.950375536;-0.0377295;-0.25288964;863030973
-20.970721;334.875;7537;17062;0.9513953;-0.030591488;-0.24575162;863058139
-20.922854;334.875;7537;17062;0.9513953;-0.036709784;-0.24575162;863106006
-20.897416;334.875;7537;17062;0.950375536;-0.0387492184;-0.25288964;863131444
-20.875228;334.875;7537;17062;0.94935584;-0.0387492184;-0.25288964;863153632
-20.851343;334.875;7537;17062;0.952415;-0.033650636;-0.24677134;863177517
-20.826836;334.875;7537;17062;0.94935584;-0.0377295;-0.24677134;863202024
-20.805398;334.875;7537;17062;0.9534347;-0.034670352;-0.242692468;863223462
-20.777099;334.875;7537;17062;0.952415;-0.03569007;-0.2447319;863251761
-20.746905;334.875;7537;17062;0.950375536;-0.0377295;-0.25186992;863281955
-20.720807;334.9375;7537;17062;0.950375536;-0.041808368;-0.25390936;863308053
-20.696444;334.9375;7537;17062;0.94935584;-0.0438478;-0.24677134;863332416
-20.673938;334.9375;7537;17062;0.9534347;-0.04078865;-0.2386136;863354922
-20.646657;334.9375;7537;17062;0.950375536;-0.0377295;-0.24167276;863382203
-20.621317;334.9375;7537;17062;0.952415;-0.03569007;-0.2508502;863407543
-20.586378;334.9375;7537;17062;0.950375536;-0.041808368;-0.25390936;863442482
-20.560578;334.9375;7537;17062;0.9534347;-0.042828084;-0.247791052;863468282
-20.525930;334.875;7537;17062;0.9534347;-0.0377295;-0.2386136;863502930
-20.495957;334.875;7537;17062;0.9513953;-0.03263092;-0.2447319;863532903
-20.472436;334.875;7537;17062;0.94935584;-0.03263092;-0.25492908;863556424
-20.424802;334.875;7537;17062;0.952415;-0.036709784;-0.24983048;863604058
-20.386577;334.875;7537;17062;0.952415;-0.0377295;-0.242692468;863642283
-20.355066;334.875;7537;17062;0.9513953;-0.03263092;-0.247791052;863673794
-20.320613;334.875;7537;17062;0.950375536;-0.031611204;-0.25288964;863708247
-20.294709;334.9375;7537;17062;0.9513953;-0.033650636;-0.247791052;863734151
-20.272093;334.9375;7537;17068;0.9534347;-0.036709784;-0.24167276;863756767
-20.235595;334.9375;7537;17062;0.952415;-0.039768936;-0.24677134;863793265
-20.214029;334.9375;7537;17062;0.952415;-0.04078865;-0.25288964;863814831
-20.191499;334.9375;7537;17062;0.950375536;-0.041808368;-0.2579882;863837361
-20.118857;334.9375;7537;17062;0.9534347;-0.036709784;-0.23963332;863910003
-20.093954;334.9375;7537;17062;0.952415;-0.0387492184;-0.24983048;863934906
-20.066839;334.9375;7537;17062;0.950375536;-0.04078865;-0.25900792;863962021
-20.033221;334.9375;7537;17068;0.9534347;-0.03263092;-0.24575162;863995639
-20.007175;334.9375;7537;17068;0.952415;-0.03263092;-0.24371218;864021685
-19.979528;334.9375;7537;17068;0.952415;-0.033650636;-0.24575162;864049332
-19.952940;334.9375;7537;17068;0.950375536;-0.034670352;-0.24983048;864075920
-19.891189;334.9375;7543;17062;0.9513953;-0.03263092;-0.247791052;864137671
-19.859413;334.9375;7543;17068;0.9534347;-0.030591488;-0.23657418;864169447
-19.822156;334.9375;7537;17068;0.950375536;-0.03569007;-0.25186992;864206704
-19.792771;334.9375;7537;17068;0.9483361;-0.04078865;-0.25900792;864236089
-19.732560;335.0;7537;17068;0.9534347;-0.036709784;-0.24065304;864296300
-19.708869;335.0;7537;17068;0.952415;-0.0377295;-0.2447319;864319991
-19.681136;335.0;7537;17068;0.950375536;-0.041808368;-0.2569685;864347724
-19.655768;335.0;7537;17068;0.9513953;-0.0387492184;-0.248810768;864373092
-19.629556;335.0;7537;17068;0.9513953;-0.0387492184;-0.24983048;864399304
-19.600542;335.0;7537;17068;0.95547416;-0.036709784;-0.2386136;864428318
-19.571624;335.0;7537;17068;0.9544544;-0.03569007;-0.237593884;864457236
-19.550326;335.0;7537;17068;0.9483361;-0.0377295;-0.2508502;864478534
-19.527512;335.0;7537;17068;0.950375536;-0.0387492184;-0.2579882;864501348
-19.500665;335.0;7537;17068;0.9513953;-0.0377295;-0.24065304;864528195
-19.477341;335.0;7537;17068;0.952415;-0.036709784;-0.23963332;864551519
-19.451076;335.0;7537;17068;0.952415;-0.03569007;-0.24371218;864577784
-19.418974;335.0;7537;17068;0.94935584;-0.034670352;-0.25390936;864609886
-19.397282;335.0;7537;17068;0.94935584;-0.03569007;-0.2508502;864631578
-19.350513;335.0;7537;17068;0.9534347;-0.039768936;-0.24677134;864678347
-19.328567;335.0;7537;17068;0.9534347;-0.0387492184;-0.24575162;864700293
-19.300081;335.0;7537;17068;0.9534347;-0.036709784;-0.2447319;864728779
-19.278011;335.0;7537;17068;0.94935584;-0.03569007;-0.25492908;864750849
-19.256219;335.0;7537;17068;0.94935584;-0.039768936;-0.25492908;864772641
-19.229628;335.0;7537;17075;0.952415;-0.036709784;-0.25390936;864799232
-19.206633;335.0625;7543;17075;0.952415;-0.0377295;-0.24371218;864822227
-19.179945;335.0625;7543;17075;0.9513953;-0.039768936;-0.242692468;864848915
-19.149524;335.0625;7543;17075;0.952415;-0.039768936;-0.2447319;864879336
-19.119447;335.0625;7543;17075;0.9513953;-0.03569007;-0.2508502;864909413
-19.089212;335.0625;7543;17075;0.952415;-0.031611204;-0.24677134;864939648
-19.064917;335.0625;7543;17075;0.950375536;-0.036709784;-0.24371218;864963943
-19.039257;335.0625;7543;17075;0.9513953;-0.0387492184;-0.24167276;864989603
-19.008802;335.0625;7543;17075;0.9544544;-0.0387492184;-0.247791052;865020058
-18.984922;335.0;7543;17075;0.9513953;-0.036709784;-0.25390936;865043938
-18.948677;335.0;7543;17075;0.94935584;-0.034670352;-0.24983048;865080183
-18.926939;335.0;7543;17075;0.952415;-0.03263092;-0.24677134;865101921
-18.898812;335.0;7543;17075;0.9513953;-0.036709784;-0.2447319;865130048
-18.877402;335.0;7543;17075;0.952415;-0.041808368;-0.25186992;865151458
-18.833043;335.0;7543;17075;0.94935584;-0.0387492184;-0.26002764;865195817
-18.806631;335.0;7543;17075;0.9534347;-0.03569007;-0.24677134;865222229
-18.785177;335.0;7543;17075;0.952415;-0.03569007;-0.24065304;865243683
-18.747823;335.0625;7543;17075;0.9513953;-0.036709784;-0.24371218;865281037
-18.717543;335.0625;7543;17075;0.9513953;-0.04078865;-0.25492908;865311317
-18.687390;335.0625;7543;17075;0.94935584;-0.039768936;-0.25390936;865341470
-18.665681;335.0625;7543;17075;0.9534347;-0.03569007;-0.2386136;865363179
-18.610659;335.0625;7543;17075;0.950375536;-0.0377295;-0.24677134;865418201
-18.586845;335.0625;7543;17075;0.952415;-0.0377295;-0.25492908;865442015
-18.563921;335.0625;7543;17075;0.9513953;-0.03569007;-0.2508502;865464939
-18.527271;335.0625;7543;17075;0.952415;-0.036709784;-0.24065304;865501589
-18.504882;335.0625;7543;17075;0.95547416;-0.036709784;-0.23555446;865523978
-18.476904;335.0625;7543;17075;0.9513953;-0.034670352;-0.24371218;865551956
-18.436619;335.0625;7543;17075;0.9483361;-0.0387492184;-0.2569685;865592241
-18.410211;335.0625;7543;17075;0.9513953;-0.034670352;-0.24983048;865618649
-18.386195;335.0625;7543;17075;0.95547416;-0.03569007;-0.24167276;865642665
-18.362671;335.0625;7543;17075;0.952415;-0.03569007;-0.24167276;865666189
-18.326201;335.0625;7543;17075;0.9513953;-0.034670352;-0.25594878;865702659
-18.285280;335.0625;7543;17075;0.94935584;-0.0387492184;-0.25186992;865743580
-18.261718;335.0625;7543;17075;0.952415;-0.0387492184;-0.24677134;865767142
-18.227474;335.0625;7543;17075;0.9534347;-0.034670352;-0.24371218;865801386
-18.195655;335.0625;7543;17075;0.9513953;-0.03569007;-0.2508502;865833205
-18.165338;335.0625;7543;17075;0.94935584;-0.039768936;-0.25492908;865863522
-18.110683;335.0625;7543;17075;0.9534347;-0.03569007;-0.237593884;865918177
-18.085079;335.0625;7543;17075;0.9534347;-0.03569007;-0.2447319;865943781
-18.063099;335.0625;7543;17075;0.94935584;-0.0387492184;-0.25390936;865965761
-18.040977;335.0625;7543;17075;0.9513953;-0.03569007;-0.247791052;865987883
-18.010207;335.0625;7543;17075;0.950375536;-0.0377295;-0.24677134;866018653
-17.984381;335.0625;7543;17075;0.94935584;-0.0387492184;-0.2447319;866044479
-17.960310;335.0625;7543;17075;0.950375536;-0.036709784;-0.24677134;866068550
-17.930912;335.0625;7543;17075;0.9513953;-0.03569007;-0.25492908;866097948
-17.907998;335.0625;7543;17075;0.94935584;-0.03569007;-0.25288964;866120862
-17.883928;335.0625;7543;17075;0.9513953;-0.036709784;-0.248810768;866144932
-17.862123;335.0625;7543;17075;0.950375536;-0.034670352;-0.24677134;866166737
-17.833924;335.0625;7543;17075;0.952415;-0.0377295;-0.24677134;866194936
-17.793521;335.0625;7543;17075;0.9483361;-0.031611204;-0.25186992;866235339
-17.770287;335.0625;7543;17075;0.952415;-0.033650636;-0.2508502;866258573
-17.743512;335.0625;7543;17075;0.952415;-0.036709784;-0.24983048;866285348
-17.720658;335.125;7543;17075;0.9513953;-0.0377295;-0.242692468;866308202
-17.693731;335.125;7543;17081;0.9534347;-0.039768936;-0.24167276;866335129
-17.671043;335.125;7543;17081;0.952415;-0.036709784;-0.248810768;866357817
-17.612958;335.125;7543;17081;0.950375536;-0.034670352;-0.2508502;866415902
-17.590774;335.125;7543;17081;0.9534347;-0.03569007;-0.237593884;866438086
-17.542610;335.125;7543;17081;0.950375536;-0.04078865;-0.24677134;866486250
-17.521190;335.125;7543;17081;0.9513953;-0.0377295;-0.2569685;866507670
-17.489244;335.125;7543;17081;0.9513953;-0.033650636;-0.247791052;866539616
-17.462261;335.125;7543;17081;0.950375536;-0.0377295;-0.24065304;866566599
-17.410665;335.125;7543;17081;0.9513953;-0.039768936;-0.25288964;866618195
-17.388700;335.125;7543;17081;0.950375536;-0.04078865;-0.25594878;866640160
-17.360302;335.125;7543;17081;0.950375536;-0.034670352;-0.2569685;866668558
-17.339143;335.125;7543;17081;0.9534347;-0.031611204;-0.24677134;866689717
-17.287797;335.125;7543;17081;0.952415;-0.0377295;-0.24575162;866741063
-17.250888;335.125;7543;17081;0.9513953;-0.036709784;-0.25288964;866777972
-17.229364;335.125;7543;17081;0.9483361;-0.034670352;-0.26104736;866799496
-17.206519;335.125;7543;17081;0.950375536;-0.033650636;-0.2508502;866822341
-17.180589;335.125;7543;17081;0.9544544;-0.03263092;-0.24065304;866848271
-17.149371;335.1875;7543;17081;0.9513953;-0.0387492184;-0.24065304;866879489
-17.128161;335.1875;7543;17081;0.9513953;-0.04078865;-0.25186992;866900699
-17.100103;335.1875;7543;17081;0.9473164;-0.039768936;-0.25492908;866928757
-17.073154;335.1875;7543;17081;0.9544544;-0.0387492184;-0.248810768;866955706
-17.049860;335.1875;7543;17081;0.9513953;-0.03263092;-0.24065304;866979000
-17.019883;335.1875;7543;17081;0.952415;-0.03569007;-0.242692468;867008977
-16.996879;335.1875;7543;17081;0.94935584;-0.0387492184;-0.25288964;867031981
-16.918106;335.125;7543;17081;0.952415;-0.0377295;-0.24167276;867110754
-16.889914;335.125;7543;17081;0.9534347;-0.031611204;-0.247791052;867138946
-16.868182;335.125;7543;17081;0.94935584;-0.029571772;-0.25900792;867160678
-16.846204;335.125;7543;17081;0.9473164;-0.033650636;-0.25900792;867182656
-16.789377;335.125;7543;17081;0.9513953;-0.0377295;-0.2508502;867239483
-16.758765;335.125;7543;17081;0.9534347;-0.03569007;-0.24371218;867270095
-16.728537;335.125;7543;17081;0.950375536;-0.033650636;-0.248810768;867300323
-16.698609;335.125;7543;17087;0.950375536;-0.034670352;-0.25288964;867330251
-16.670877;335.1875;7543;17087;0.9513953;-0.03569007;-0.247791052;867357983
-16.638342;335.1875;7543;17087;0.952415;-0.036709784;-0.23963332;867390518
-16.607933;335.1875;7543;17087;0.952415;-0.04078865;-0.2447319;867420927
-16.586154;335.1875;7543;17087;0.950375536;-0.041808368;-0.247791052;867442706
-16.557901;335.1875;7543;17087;0.9513953;-0.0387492184;-0.24983048;867470959
-16.528202;335.1875;7543;17087;0.952415;-0.039768936;-0.24371218;867500658
-16.497663;335.1875;7543;17087;0.950375536;-0.036709784;-0.24167276;867531197
-16.474808;335.1875;7543;17087;0.950375536;-0.039768936;-0.24983048;867554052
-16.447324;335.1875;7543;17087;0.9513953;-0.0387492184;-0.2569685;867581536
-16.426013;335.1875;7543;17087;0.950375536;-0.03569007;-0.25390936;867602847
-16.391430;335.1875;7543;17087;0.952415;-0.03569007;-0.24371218;867637430
-16.367190;335.1875;7543;17087;0.950375536;-0.03569007;-0.24983048;867661670
-16.336882;335.1875;7543;17087;0.952415;-0.03569007;-0.24677134;867691978
-16.283895;335.1875;7543;17087;0.9513953;-0.031611204;-0.25186992;867744965
-16.236349;335.1875;7543;17087;0.952415;-0.034670352;-0.2447319;867792511
-16.213392;335.1875;7543;17093;0.9534347;-0.034670352;-0.24677134;867815468
-16.186266;335.25;7543;17093;0.94935584;-0.036709784;-0.248810768;867842594
-16.156349;335.25;7543;17093;0.9513953;-0.036709784;-0.25186992;867872511
-16.126328;335.25;7543;17093;0.9483361;-0.036709784;-0.2447319;867902532
-16.105038;335.25;7543;17093;0.9513953;-0.03569007;-0.24167276;867923822
-16.082972;335.25;7543;17093;0.9544544;-0.036709784;-0.24371218;867945888
-16.055928;335.25;7543;17093;0.950375536;-0.0387492184;-0.24575162;867972932
-16.022089;335.25;7543;17093;0.950375536;-0.04078865;-0.25186992;868006771
-15.995379;335.25;7543;17093;0.9513953;-0.04078865;-0.247791052;868033481
-15.973909;335.25;7543;17093;0.9513953;-0.03263092;-0.2508502;868054951
-15.945397;335.25;7543;17093;0.9544544;-0.034670352;-0.24677134;868083463
-15.915294;335.25;7543;17093;0.9513953;-0.0377295;-0.2508502;868113566
-15.893678;335.25;7543;17093;0.950375536;-0.036709784;-0.24983048;868135182
-15.867759;335.25;7543;17093;0.952415;-0.0377295;-0.247791052;868161101
-15.844019;335.25;7543;17093;0.9513953;-0.034670352;-0.248810768;868184841
-15.819881;335.25;7543;17093;0.9534347;-0.031611204;-0.2508502;868208979
-15.794594;335.25;7543;17093;0.950375536;-0.029571772;-0.2508502;868234266
-15.771057;335.3125;7543;17093;0.94935584;-0.034670352;-0.25288964;868257803
-15.724220;335.3125;7543;17093;0.950375536;-0.04078865;-0.24575162;868304640
-15.701411;335.3125;7543;17093;0.9534347;-0.0387492184;-0.2447319;868327449
-15.652963;335.3125;7543;17093;0.9513953;-0.029571772;-0.2508502;868375897
-15.631286;335.375;7543;17087;0.952415;-0.034670352;-0.242692468;868397574
-15.582302;335.375;7543;17087;0.9534347;-0.053025244;-0.23963332;868446558
-15.560623;335.375;7543;17087;0.950375536;-0.04588723;-0.24677134;868468237
-15.533644;335.375;7543;17081;0.9483361;-0.0377295;-0.25288964;868495216
-15.511621;335.375;7543;17087;0.950375536;-0.029571772;-0.25390936;868517239
-15.460786;335.375;7543;17087;0.9534347;-0.041808368;-0.24065304;868568074
-15.433168;335.375;7543;17087;0.952415;-0.046906948;-0.24575162;868595692
-15.410005;335.375;7543;17087;0.94935584;-0.041808368;-0.25186992;868618855
-15.383010;335.375;7543;17093;0.950375536;-0.0377295;-0.25186992;868645850
-15.361193;335.3125;7543;17093;0.9513953;-0.026512622;-0.25288964;868667667
-15.338854;335.3125;7543;17093;0.9544544;-0.025492906;-0.242692468;868690006
-15.297415;335.3125;7543;17093;0.94935584;-0.041808368;-0.24677134;868731445
-15.270716;335.3125;7543;;133;150;3945;868758144
-15.218298;335.3125;7543;17093;0.9534347;-0.030591488;-0.242692468;868810562
-15.196117;335.3125;7543;17093;0.952415;-0.031611204;-0.242692468;868832743
-15.119301;335.375;7543;17081;0.950375536;-0.042828084;-0.25186992;868909559
-15.097009;335.375;7543;17081;0.9513953;-0.041808368;-0.242692468;868931851
-15.048867;335.375;7543;17081;0.952415;-0.031611204;-0.248810768;868979993
-15.021119;335.4375;7543;17087;0.950375536;-0.03569007;-0.25288964;869007741
-14.997884;335.4375;7543;17087;0.94935584;-0.042828084;-0.24677134;869030976
-14.970928;335.4375;7543;17087;0.9513953;-0.04588723;-0.242692468;869057932
-14.947807;335.4375;7543;17087;0.952415;-0.04078865;-0.24575162;869081053
-14.920857;335.4375;7543;17087;0.952415;-0.0377295;-0.2508502;869108003
-14.889635;335.4375;7543;17093;0.9544544;-0.030591488;-0.24575162;869139225
-14.830165;335.4375;7543;17093;0.9513953;-0.036709784;-0.248810768;869198695
-14.794077;335.4375;7543;17093;0.9513953;-0.042828084;-0.24677134;869234783
-14.767485;335.375;7543;17087;0.950375536;-0.036709784;-0.247791052;869261375
-14.745416;335.375;7543;17087;0.9513953;-0.030591488;-0.24677134;869283444
-14.720138;335.375;7543;17087;0.9534347;-0.026512622;-0.24575162;869308722
-14.689399;335.375;7543;17087;0.950375536;-0.036709784;-0.25186992;869339461
-14.659305;335.4375;7543;17087;0.94935584;-0.042828084;-0.25390936;869369555
-14.608923;335.4375;7543;17087;0.9513953;-0.034670352;-0.24575162;869419937
-14.587107;335.4375;7543;17087;0.952415;-0.034670352;-0.24575162;869441753
-14.558935;335.4375;7543;17087;0.950375536;-0.030591488;-0.24983048;869469925
-14.519198;335.4375;7543;17087;0.94935584;-0.0377295;-0.247791052;869509662
-14.488600;335.4375;7543;17087;0.952415;-0.042828084;-0.24371218;869540260
-14.458600;335.4375;7543;17087;0.952415;-0.041808368;-0.24677134;869570260
-14.428430;335.4375;7543;17087;0.950375536;-0.031611204;-0.25492908;869600430
-14.385221;335.4375;7543;17087;0.952415;-0.033650636;-0.24677134;869643639
-14.358551;335.4375;7543;17087;0.952415;-0.036709784;-0.24371218;869670309
-14.328653;335.4375;7543;17087;0.9534347;-0.042828084;-0.24167276;869700207
-14.297785;335.4375;7543;17087;0.950375536;-0.0387492184;-0.25288964;869731075
-14.257225;335.4375;7543;17087;0.9513953;-0.033650636;-0.2579882;869771635
-14.235006;335.4375;7543;17087;0.9534347;-0.031611204;-0.242692468;869793854
-14.207575;335.5;7543;17087;0.9534347;-0.036709784;-0.23963332;869821285
-14.186340;335.5;7543;17087;0.9534347;-0.039768936;-0.24575162;869842520
-14.156647;335.5;7543;17087;0.950375536;-0.0377295;-0.2569685;869872213
-14.127260;335.5;7543;17087;0.950375536;-0.036709784;-0.25186992;869901600
-14.097006;335.5;7543;17087;0.952415;-0.033650636;-0.242692468;869931854
-14.075375;335.5;7543;17087;0.952415;-0.036709784;-0.24167276;869953485
-14.053637;335.5;7543;17093;0.94935584;-0.04078865;-0.2447319;869975223
-14.026937;335.5;7543;17093;0.94935584;-0.0438478;-0.25288964;870001923
-14.003466;335.5;7543;17093;0.9483361;-0.039768936;-0.25492908;870025394
-13.976686;335.5;7543;17093;0.9513953;-0.03569007;-0.24575162;870052174
-13.954835;335.5;7543;17093;0.9534347;-0.031611204;-0.2386136;870074025
-13.926450;335.5;7543;17093;0.952415;-0.03569007;-0.24167276;870102410
-13.896126;335.5;7543;17093;0.950375536;-0.0377295;-0.25492908;870132734
-13.873052;335.5;7543;17093;0.950375536;-0.042828084;-0.25288964;870155808
-13.845880;335.5;7543;17093;0.952415;-0.0387492184;-0.24677134;870182980
-13.815884;335.5;7543;17093;0.9534347;-0.029571772;-0.2386136;870212976
-13.775441;335.5;7543;17093;;0;3941;870253419
-13.752257;335.5;7543;17093;0.94935584;-0.0387492184;-0.25900792;870276603
-13.725269;335.5;7543;17093;0.950375536;-0.039768936;-0.25390936;870303591
-13.692054;335.5;7543;17093;0.9513953;-0.034670352;-0.23657418;870336806
-13.664205;335.5;7543;17093;0.952415;-0.030591488;-0.242692468;870364655
-13.637599;335.5;7543;17093;0.950375536;-0.033650636;-0.247791052;870391261
-13.605022;335.5;7543;17093;0.94935584;-0.04078865;-0.26104736;870423838
-13.579366;335.5625;7543;17093;0.9513953;-0.039768936;-0.2447319;870449494
-13.554733;335.5625;7543;17093;0.952415;-0.0377295;-0.2386136;870474127
-13.524752;335.5625;7543;17093;0.9534347;-0.03263092;-0.24167276;870504108
-13.480883;335.5625;7543;17093;0.94935584;-0.036709784;-0.2569685;870547977
-13.454527;335.5625;7543;17093;0.952415;-0.036709784;-0.2508502;870574333
-13.423541;335.5625;7543;17093;0.950375536;-0.0438478;-0.2386136;870605319
-13.401812;335.5625;7543;17093;0.9534347;-0.0377295;-0.242692468;870627048
-13.374496;335.5625;7543;17093;0.952415;-0.03263092;-0.248810768;870654364
-13.343677;335.5625;7543;17093;0.9483361;-0.034670352;-0.26002764;870685183
-13.292761;335.5625;7543;17093;0.94935584;-0.036709784;-0.2447319;870736099
-13.263578;335.5625;7550;17093;0.952415;-0.03569007;-0.23555446;870765282
-13.225268;335.5625;7550;17093;0.9483361;-0.0377295;-0.2508502;870803592
-13.201069;335.5625;7550;17093;0.9513953;-0.03263092;-0.2579882;870827791
-13.169092;335.5625;7550;17093;0.950375536;-0.03569007;-0.23963332;870859768
-13.141135;335.5625;7550;;42;84;3943;870887725
-13.112175;335.5625;7550;17100;0.9513953;-0.0387492184;-0.25390936;870916685
-13.082082;335.5625;7550;17100;0.950375536;-0.04078865;-0.25186992;870946778
-13.060307;335.5625;7550;17100;0.952415;-0.034670352;-0.247791052;870968553
-13.038101;335.5625;7550;17100;0.9513953;-0.033650636;-0.24575162;870990759
-13.012304;335.5625;7550;17100;0.9544544;-0.031611204;-0.24065304;871016556
-12.990205;335.5625;7550;17100;0.94935584;-0.039768936;-0.24983048;871038655
-12.958703;335.5625;7550;17100;0.950375536;-0.0438478;-0.25288964;871070157
-12.911623;335.5625;7550;17100;0.9513953;-0.036709784;-0.247791052;871117237
-12.889414;335.5625;7550;17093;0.9544544;-0.031611204;-0.242692468;871139446
-12.840077;335.5625;7550;17093;;0.026;1;871188783
-12.811484;335.5625;7550;17093;0.94935584;-0.039768936;-0.24983048;871217376
-12.768966;335.5625;7550;17100;0.950375536;-0.03263092;-0.24983048;871259894
-12.740923;335.5625;7550;17100;0.9534347;-0.028552056;-0.24677134;871287937
-12.710233;335.5625;7550;17100;0.9513953;-0.036709784;-0.24983048;871318627
-12.686559;335.5625;7550;17100;0.9513953;-0.0438478;-0.248810768;871342301
-12.660243;335.5625;7550;17100;0.9483361;-0.046906948;-0.24677134;871368617
-12.610400;335.5625;7550;17100;0.950375536;-0.026512622;-0.248810768;871418460
-12.580386;335.5625;7550;17100;0.9513953;-0.028552056;-0.248810768;871448474
-12.559370;335.5625;7550;17093;0.9513953;-0.04078865;-0.25288964;871469490
-12.529899;335.5625;7550;17087;0.950375536;-0.047926664;-0.24677134;871498961
-12.507871;335.5625;7550;17087;0.950375536;-0.039768936;-0.248810768;871520989
-12.486188;335.5625;7550;17087;0.9513953;-0.036709784;-0.24677134;871542672
-12.459574;335.5625;7550;17087;0.9534347;-0.02753234;-0.2508502;871569286
-12.409273;335.625;7550;17087;0.9513953;-0.031611204;-0.25186992;871619587
-12.387197;335.625;7550;17087;0.952415;-0.042828084;-0.24575162;871641663
-12.359119;335.6875;7550;17087;0.9534347;-0.047926664;-0.242692468;871669741
-12.335513;335.6875;7550;17087;0.95547416;-0.0387492184;-0.24065304;871693347
-12.308871;335.6875;7550;17087;0.9483361;-0.031611204;-0.25288964;871719989
-12.285694;335.6875;7550;17087;0.9534347;-0.023453474;-0.2569685;871743166
-12.237332;335.6875;7550;17087;0.9534347;-0.047926664;-0.2386136;871791528
-12.208558;335.6875;7550;17087;0.952415;-0.04894638;-0.23453474;871820302
-12.185961;335.6875;7550;17087;0.9513953;-0.04588723;-0.24677134;871842899
-12.158465;335.6875;7550;17100;0.950375536;-0.031611204;-0.25900792;871870395
-12.137267;335.6875;7550;17093;0.950375536;-0.021414042;-0.2641065;871891593
-12.115257;335.6875;7550;17093;0.9513953;-0.025492906;-0.247791052;871913603
-12.088231;335.6875;7550;17087;0.9534347;-0.033650636;-0.23555446;871940629
-12.059585;335.6875;7550;17087;0.9513953;-0.06016326;-0.23555446;871969275
-12.037287;335.6875;7550;17087;0.9462967;-0.054044963;-0.25288964;871991573
-12.007998;335.6875;7550;17093;0.94935584;-0.02447319;-0.26104736;872020862
-11.986352;335.625;7550;17100;0.9544544;-0.015295744;-0.24983048;872042508
-11.965299;335.6875;7550;17093;0.95547416;-0.02447319;-0.24065304;872063561
-11.930791;335.6875;7550;17087;0.9513953;-0.050985812;-0.23555446;872098069
-11.906860;335.6875;7550;17087;0.94935584;-0.056084396;-0.2447319;872122000
-11.884384;335.6875;7550;17087;0.94935584;-0.044867516;-0.2579882;872144476
-11.857652;335.6875;7550;17093;0.950375536;-0.03263092;-0.2641065;872171208
-11.830489;335.6875;7550;17100;0.9534347;-0.015295744;-0.24677134;872198371
-11.806609;335.75;7550;17100;0.95649384;-0.017335176;-0.23045588;872222251
-11.765577;335.75;7550;17093;0.952415;-0.046906948;-0.23351502;872263283
-11.729241;335.8125;7550;17093;0.94935584;-0.044867516;-0.25900792;872299619
-11.696268;335.75;7550;17106;0.9534347;-0.02447319;-0.248810768;872332592
-11.666363;335.75;7550;17106;0.9534347;-0.021414042;-0.23963332;872362497
-11.636620;335.8125;7550;17106;0.950375536;-0.03263092;-0.24677134;872392240
-11.585406;335.8125;7550;17093;0.9483361;-0.054044963;-0.25900792;872443454
-11.564097;335.75;7550;17100;0.950375536;-0.0377295;-0.2508502;872464763
-11.532067;335.8125;7550;17106;0.95547416;-0.0193746092;-0.23453474;872496793
-11.482137;335.8125;7550;17106;0.9483361;-0.04588723;-0.25900792;872546723
-11.457360;335.8125;7543;17100;0.945277;-0.05506468;-0.26716566;872571500
-11.430762;335.8125;7543;17100;0.9513953;-0.039768936;-0.24677134;872598098
-11.405276;335.8125;7550;17106;0.95547416;-0.033650636;-0.23453474;872623584
-11.351295;335.8125;7543;17112;0.9513953;-0.025492906;-0.2579882;872677565
-11.329700;335.8125;7543;17112;0.9483361;-0.033650636;-0.2641065;872699160
-11.304745;335.875;7543;17106;0.94935584;-0.041808368;-0.2579882;872724115
-11.279073;335.8125;7543;17100;0.952415;-0.058123828;-0.2314756;872749787
-11.234318;335.8125;7543;17106;0.952415;-0.025492906;-0.23963332;872794542
-11.194534;335.8125;7543;17112;0.94935584;-0.0193746092;-0.27226424;872834326
-11.172373;335.8125;7543;17100;0.950375536;-0.039768936;-0.248810768;872856487
-11.141802;335.875;7550;17093;0.9534347;-0.061182976;-0.22229814;872887058
-11.114109;335.875;7550;17093;0.952415;-0.06016326;-0.2253573;872914751
-11.091992;335.8125;7543;17100;0.9483361;-0.029571772;-0.2630868;872936868
-11.063931;335.8125;7543;17106;0.9483361;-0.01631546;-0.27430368;872964929
-11.040098;335.8125;7543;17106;0.952415;-0.0193746092;-0.25900792;872988762
-11.010761;335.875;7550;17100;0.9513953;-0.046906948;-0.22841644;873018099
-10.983199;335.875;7550;17093;0.952415;-0.06016326;-0.22943616;873045661
-10.951005;335.875;7543;17093;0.94935584;-0.04078865;-0.26614594;873077855
-10.929394;335.8125;7543;17106;0.945277;-0.025492906;-0.26818538;873099466
-10.900716;335.8125;7543;17106;0.950375536;-0.012236595;-0.25288964;873128144
-10.876595;335.8125;7543;17106;0.95649384;-0.022433758;-0.23555446;873152265
-10.852400;335.875;7543;17100;0.9534347;-0.042828084;-0.23045588;873176460
-10.829974;335.875;7543;17093;0.9483361;-0.06016326;-0.248810768;873198886
-10.802797;335.875;7543;17100;0.94935584;-0.050985812;-0.2579882;873226063
-10.780276;335.8125;7543;17106;0.9513953;-0.025492906;-0.26104736;873248584
-10.731807;335.8125;7543;17112;0.9534347;-0.017335176;-0.24167276;873297053
-10.709376;335.875;7543;17106;0.9513953;-0.0438478;-0.23453474;873319484
-10.682038;335.875;7543;17100;0.950375536;-0.054044963;-0.2447319;873346822
-10.649340;335.875;7543;17093;0.9462967;-0.047926664;-0.26002764;873379520
-10.628357;335.8125;7543;17100;0.950375536;-0.028552056;-0.25288964;873400503
-10.601449;335.8125;7543;17100;0.9534347;-0.01631546;-0.242692468;873427411
-10.578681;335.8125;7543;17100;0.9544544;-0.021414042;-0.24065304;873450179
-10.553015;335.875;7543;17093;0.950375536;-0.042828084;-0.247791052;873475845
-10.528322;335.875;7543;17087;0.94935584;-0.05710411;-0.25492908;873500538
-10.498428;335.875;7543;17093;0.9513953;-0.047926664;-0.247791052;873530432
-10.477023;335.875;7543;17093;0.9513953;-0.029571772;-0.2447319;873551837
-10.450926;335.875;7543;17106;0.9513953;-0.020394326;-0.24371218;873577934
-10.400543;335.9375;7543;17112;0.950375536;-0.036709784;-0.25594878;873628317
-10.378668;335.9375;7543;17106;0.9462967;-0.059143544;-0.2579882;873650192
-10.351056;335.9375;7543;17100;0.950375536;-0.058123828;-0.25186992;873677804
-10.320674;335.9375;7543;17106;0.9544544;-0.03263092;-0.23555446;873708186
-10.297857;335.875;7543;17112;0.9534347;-0.01631546;-0.24167276;873731003
-10.275722;335.875;7543;17112;0.9513953;-0.017335176;-0.25492908;873753138
-10.229762;335.9375;7537;17112;0.9483361;-0.044867516;-0.25594878;873799098
-10.208090;335.9375;7543;17106;0.9513953;-0.05506468;-0.2386136;873820770
-10.186223;335.9375;7543;17100;0.952415;-0.050985812;-0.23351502;873842637
-10.109065;335.9375;7537;17118;0.950375536;-0.020394326;-0.26002764;873919795
-10.086942;335.9375;7537;17112;0.950375536;-0.042828084;-0.24575162;873941918
-10.065095;336.0;7537;17106;0.9513953;-0.04894638;-0.23555446;873963765
-10.039225;335.9375;7537;17106;0.9534347;-0.049966096;-0.23555446;873989635
-9.985761;335.9375;7537;17112;0.952415;-0.02447319;-0.25594878;874043099
-9.958863;335.9375;7537;17112;0.9513953;-0.023453474;-0.25186992;874069997
-9.930524;336.0;7537;17112;0.9534347;-0.0387492184;-0.24371218;874098336
-9.900703;336.0;7537;17106;0.9513953;-0.04894638;-0.24065304;874128157
-9.877959;336.0;7537;17106;0.94935584;-0.0438478;-0.24371218;874150901
-9.855367;335.9375;7537;17106;0.950375536;-0.033650636;-0.25390936;874173493
-9.827884;335.9375;7537;17106;0.9513953;-0.028552056;-0.26002764;874200976
-9.797938;336.0;7537;17112;0.952415;-0.028552056;-0.25186992;874230922
-9.747726;336.0;7537;17106;0.9513953;-0.046906948;-0.23657418;874281134
-9.716365;336.0;7537;17106;0.94935584;-0.044867516;-0.25390936;874312495
-9.687419;336.0;7537;17106;0.9483361;-0.034670352;-0.2579882;874341441
-9.657681;336.0;7537;17112;0.9544544;-0.02447319;-0.247791052;874371179
-9.629886;336.0625;7537;17112;0.952415;-0.031611204;-0.2447319;874398974
-9.597175;336.0625;7537;17112;0.94935584;-0.04588723;-0.24371218;874431685
-9.572467;336.0625;7537;17112;0.950375536;-0.047926664;-0.24575162;874456393
-9.546914;336.0625;7537;17112;0.9513953;-0.039768936;-0.25186992;874481946
-9.521074;336.0625;7537;17118;0.950375536;-0.026512622;-0.25390936;874507786
-9.496609;336.0625;7531;17118;0.9534347;-0.025492906;-0.2447319;874532251
-9.471671;336.0625;7531;17118;0.9534347;-0.033650636;-0.24065304;874557189
-9.446557;336.0625;7531;17112;0.9513953;-0.047926664;-0.247791052;874582303
-9.420336;336.0625;7531;17112;0.950375536;-0.044867516;-0.248810768;874608524
-9.394440;336.0625;7531;17118;0.9513953;-0.034670352;-0.24677134;874634420
-9.345739;336.0625;7531;17118;0.952415;-0.023453474;-0.25186992;874683121
-9.323394;336.0625;7531;17112;0.952415;-0.034670352;-0.248810768;874705466
-9.255660;336.0625;7531;17106;0.9513953;-0.042828084;-0.247791052;874773200
-9.229880;336.0625;7531;17106;0.950375536;-0.031611204;-0.247791052;874798980
-9.205409;336.0625;7531;17106;0.952415;-0.02753234;-0.24371218;874823451
-9.183811;336.0625;7531;17106;0.952415;-0.031611204;-0.24983048;874845049
-9.147910;336.125;7531;17112;0.9513953;-0.042828084;-0.248810768;874880950
-9.120954;336.125;7531;17112;0.950375536;-0.0387492184;-0.25288964;874907906
-9.094829;336.125;7531;17112;0.9534347;-0.039768936;-0.24167276;874934031
-9.045057;336.125;7531;17112;0.952415;-0.028552056;-0.242692468;874983803
-9.011954;336.125;7531;17112;0.950375536;-0.0387492184;-0.25186992;875016906
-8.984537;336.125;7531;17112;0.94935584;-0.04078865;-0.24983048;875044323
-8.962730;336.125;7531;17112;0.950375536;-0.04078865;-0.24575162;875066130
-8.930191;336.125;7531;17112;0.952415;-0.034670352;-0.24677134;875098669
-8.901474;336.125;7531;17112;0.952415;-0.034670352;-0.24983048;875127386
-8.874028;336.125;7531;17112;0.94935584;-0.034670352;-0.25390936;875154832
-8.810509;336.125;7531;17112;0.950375536;-0.0387492184;-0.24677134;875218351
-8.783761;336.125;7531;17112;0.950375536;-0.033650636;-0.25288964;875245099
-8.743418;336.125;7531;17112;0.952415;-0.02753234;-0.2508502;875285442
-8.718797;336.125;7531;17112;0.9513953;-0.036709784;-0.24371218;875310063
-8.690628;336.1875;7531;17112;0.9513953;-0.042828084;-0.24065304;875338232
-8.660105;336.1875;7531;17112;0.9513953;-0.04078865;-0.242692468;875368755
-8.632803;336.1875;7531;17112;0.950375536;-0.03569007;-0.25288964;875396057
-8.602798;336.1875;7531;17112;0.9513953;-0.02753234;-0.24983048;875426062
-8.580693;336.1875;7531;17112;0.9513953;-0.03263092;-0.247791052;875448167
-8.552155;336.1875;7531;17112;0.952415;-0.041808368;-0.24167276;875476705
-8.529989;336.1875;7531;17112;0.9513953;-0.0438478;-0.2447319;875498871
-8.502472;336.1875;7531;;-102;0;3948;875526388
-8.472195;336.1875;7531;17112;0.94935584;-0.03263092;-0.25288964;875556665
-8.450049;336.1875;7531;17112;0.952415;-0.030591488;-0.247791052;875578811
-8.421192;336.1875;7531;17112;0.952415;-0.034670352;-0.2447319;875607668
-8.396568;336.1875;7531;17112;0.9513953;-0.04078865;-0.247791052;875632292
-8.349320;336.1875;7531;17112;0.94935584;-0.041808368;-0.248810768;875679540
-8.323541;336.1875;7531;17112;0.950375536;-0.03263092;-0.24575162;875705319
-8.301258;336.1875;7531;17112;0.952415;-0.028552056;-0.24575162;875727602
-8.251371;336.1875;7531;17112;0.9534347;-0.036709784;-0.24677134;875777489
-8.227936;336.1875;7531;17112;0.9513953;-0.0438478;-0.25492908;875800924
-8.201287;336.1875;7531;17112;0.9513953;-0.0387492184;-0.24677134;875827573
-8.178978;336.1875;7531;17112;0.952415;-0.031611204;-0.2447319;875849882
-8.157233;336.1875;7531;17112;0.9534347;-0.030591488;-0.23963332;875871627
-8.130422;336.1875;7531;17112;0.9513953;-0.03569007;-0.247791052;875898438
-8.102918;336.1875;7531;17112;0.9513953;-0.039768936;-0.2447319;875925942
-8.080313;336.1875;7531;17118;0.950375536;-0.041808368;-0.25186992;875948547
-8.058117;336.1875;7531;17118;0.94935584;-0.041808368;-0.24983048;875970743
-8.031345;336.1875;7531;17118;0.9513953;-0.036709784;-0.24677134;875997515
-7.999942;336.1875;7531;17118;0.9534347;-0.029571772;-0.2447319;876028918
-7.976819;336.1875;7531;17118;0.952415;-0.031611204;-0.248810768;876052041
-7.950315;336.25;7531;17118;0.950375536;-0.04078865;-0.25492908;876078545
-7.928832;336.25;7531;17118;0.950375536;-0.0438478;-0.24677134;876100028
-7.899523;336.25;7531;17118;0.94935584;-0.044867516;-0.24575162;876129337
-7.877694;336.25;7531;17118;0.952415;-0.033650636;-0.24575162;876151166
-7.854349;336.25;7531;17118;0.950375536;-0.030591488;-0.25186992;876174511
-7.756362;336.3125;7531;17125;0.950375536;-0.042828084;-0.24167276;876272498
-7.728900;336.3125;7531;17125;0.9534347;-0.036709784;-0.247791052;876299960
-7.698287;336.3125;7531;17125;0.9513953;-0.028552056;-0.24983048;876330573
-7.676097;336.3125;7531;17125;0.9513953;-0.030591488;-0.2508502;876352763
-7.649230;336.3125;7531;17125;0.9513953;-0.036709784;-0.24371218;876379630
-7.617453;336.3125;7531;17125;0.950375536;-0.041808368;-0.24575162;876411407
-7.595575;336.3125;7531;17125;0.950375536;-0.04078865;-0.24371218;876433285
-7.507675;336.3125;7531;17125;0.9513953;-0.03569007;-0.2508502;876521185
-7.485416;336.3125;7531;17125;0.9513953;-0.0387492184;-0.248810768;876543444
-7.448218;336.3125;7531;17125;0.950375536;-0.042828084;-0.24677134;876580642
-7.417490;336.3125;7531;17125;0.952415;-0.034670352;-0.247791052;876611370
-7.387654;336.3125;7531;17125;0.9513953;-0.030591488;-0.247791052;876641206
-7.337391;336.3125;7531;17125;0.952415;-0.041808368;-0.247791052;876691469
-7.316134;336.375;7531;17125;0.952415;-0.04078865;-0.24371218;876712726
-7.287334;336.375;7531;17125;0.9513953;-0.0377295;-0.24575162;876741526
-7.238241;336.375;;1.7149999;0.294;-0.049;1;876790619
-7.214853;336.375;7531;17125;0.9534347;-0.034670352;-0.24575162;876814007
-7.188731;336.375;7531;17125;0.9534347;-0.034670352;-0.24371218;876840129
-7.166167;336.375;7531;17125;0.9544544;-0.0387492184;-0.247791052;876862693
-7.136610;336.375;7531;17125;0.9513953;-0.04078865;-0.24677134;876892250
-7.115232;336.375;7531;17125;0.950375536;-0.036709784;-0.24983048;876913628
-7.092874;336.375;7531;17125;0.952415;-0.03263092;-0.247791052;876935986
-7.065997;336.375;7531;17125;0.952415;-0.034670352;-0.247791052;876962863
-7.044160;336.375;7531;17125;0.9513953;-0.039768936;-0.248810768;876984700
-7.015816;336.375;7531;17125;0.950375536;-0.036709784;-0.24575162;877013044
-6.985888;336.375;7531;17125;0.9513953;-0.0387492184;-0.25288964;877042972
-6.960705;336.375;7531;17125;0.950375536;-0.0377295;-0.248810768;877068155
-6.935733;336.375;7531;17125;0.9513953;-0.033650636;-0.248810768;877093127
-6.905317;336.375;7531;17131;0.950375536;-0.033650636;-0.2508502;877123543
-6.883490;336.375;7531;17131;0.94935584;-0.0377295;-0.247791052;877145370
-6.860171;336.375;7531;17131;0.9534347;-0.0387492184;-0.24371218;877168689
-6.832193;336.375;7531;17131;0.950375536;-0.0377295;-0.24575162;877196667
-6.784986;336.375;7531;17131;0.9513953;-0.033650636;-0.2447319;877243874
-6.762653;336.4375;7531;17131;0.952415;-0.033650636;-0.24371218;877266207
-6.731913;336.4375;7531;17131;0.9513953;-0.036709784;-0.24575162;877296947
-6.708801;336.4375;7531;17131;0.952415;-0.0377295;-0.248810768;877320059
-6.683782;336.4375;7531;17131;0.952415;-0.039768936;-0.2508502;877345078
-6.658912;336.4375;7531;17131;0.9513953;-0.036709784;-0.24575162;877369948
-6.634325;336.4375;7531;17131;0.952415;-0.0377295;-0.24677134;877394535
-6.610436;336.4375;7531;17131;0.950375536;-0.033650636;-0.24677134;877418424
-6.584293;336.4375;7531;17131;0.9513953;-0.034670352;-0.24983048;877444567
-6.562853;336.4375;7531;17131;0.9513953;-0.039768936;-0.2508502;877466007
-6.533922;336.4375;7531;17131;0.9483361;-0.04078865;-0.24677134;877494938
-6.511762;336.4375;7531;17131;0.9513953;-0.0387492184;-0.23555446;877517098
-6.483717;336.4375;7531;17131;0.94935584;-0.0377295;-0.24371218;877545143
-6.462061;336.4375;7531;17131;0.950375536;-0.030591488;-0.25390936;877566799
-6.433743;336.4375;7531;17131;0.9513953;-0.03569007;-0.25186992;877595117
-6.412287;336.4375;7531;17131;0.9513953;-0.034670352;-0.248810768;877616573
-6.383299;336.4375;7537;17131;0.950375536;-0.034670352;-0.24677134;877645561
-6.349357;336.4375;7537;17137;0.9534347;-0.034670352;-0.24371218;877679503
-6.322144;336.4375;7537;17137;0.950375536;-0.036709784;-0.24371218;877706716
-6.293062;336.4375;7537;17137;0.952415;-0.036709784;-0.247791052;877735798
-6.269624;336.4375;7537;17137;0.9513953;-0.03263092;-0.2508502;877759236
-6.232155;336.5;7537;17137;0.9544544;-0.036709784;-0.24371218;877796705
-6.208406;336.5;7537;17137;0.9544544;-0.0387492184;-0.23453474;877820454
-6.182215;336.5;7537;17137;0.9534347;-0.042828084;-0.242692468;877846645
-6.152443;336.5;7531;17137;0.9473164;-0.0377295;-0.25390936;877876417
-6.130126;336.5;7531;17137;0.950375536;-0.036709784;-0.25492908;877898734
-6.106826;336.5;7531;17137;0.9513953;-0.03569007;-0.2508502;877922034
-6.081982;336.5;7531;17137;0.952415;-0.036709784;-0.237593884;877946878
-6.058122;336.5;7531;17137;0.9534347;-0.041808368;-0.24575162;877970738
-6.031890;336.5;7531;17137;0.950375536;-0.042828084;-0.247791052;877996970
-6.009257;336.5;7531;17137;0.94935584;-0.036709784;-0.25594878;878019603
-5.981989;336.5;7531;17137;0.952415;-0.033650636;-0.248810768;878046871
-5.957920;336.5;7531;17137;0.9513953;-0.02753234;-0.24575162;878070940
-5.931274;336.5;7531;17137;0.950375536;-0.030591488;-0.24677134;878097586
-5.905192;336.5;7531;17143;0.952415;-0.034670352;-0.23963332;878123668
-5.870894;336.5;7531;17137;0.94935584;-0.042828084;-0.25186992;878157966
-5.810544;336.5;7531;17137;0.9513953;-0.033650636;-0.24371218;878218316
-5.779157;336.5;7531;17137;0.952415;-0.030591488;-0.2508502;878249703
-5.750074;336.5;7531;17131;0.952415;-0.031611204;-0.24983048;878278786
-5.679712;336.5;7531;17125;0.94935584;-0.049966096;-0.24575162;878349148
-5.657057;336.5;7531;17125;0.950375536;-0.036709784;-0.24677134;878371803
-5.630150;336.5;7531;17125;0.950375536;-0.033650636;-0.24983048;878398710
-5.598941;336.5;7531;17125;0.950375536;-0.031611204;-0.25186992;878429919
-5.576415;336.5;7531;17125;0.950375536;-0.042828084;-0.24677134;878452445
-5.549091;336.5625;7531;17131;0.952415;-0.04894638;-0.24065304;878479769
-5.525597;336.5625;7531;17131;0.9513953;-0.041808368;-0.24167276;878503263
-5.499008;336.5625;7531;17137;0.9513953;-0.036709784;-0.248810768;878529852
-5.476196;336.5625;7531;17137;0.9513953;-0.02447319;-0.25594878;878552664
-5.453767;336.5625;7531;17137;0.952415;-0.023453474;-0.248810768;878575093
-5.428630;336.5625;7531;17137;0.9544544;-0.030591488;-0.242692468;878600230
-5.400635;336.5625;7531;17131;0.9534347;-0.039768936;-0.2386136;878628225
-5.378375;336.625;7531;17131;0.9513953;-0.046906948;-0.24371218;878650485
-5.352825;336.625;7531;17131;0.9513953;-0.04078865;-0.242692468;878676035
-5.328250;336.5625;7531;17131;0.94935584;-0.031611204;-0.2579882;878700610
-5.306234;336.5625;7531;17131;0.950375536;-0.028552056;-0.24983048;878722626
-5.278413;336.5625;7531;17131;0.9534347;-0.028552056;-0.248810768;878750447
-5.256487;336.5625;7531;17125;0.9513953;-0.044867516;-0.23453474;878772373
-5.217852;336.5625;7531;17125;0.950375536;-0.049966096;-0.24983048;878811008
-5.195258;336.5625;7531;17125;0.9473164;-0.04588723;-0.2579882;878833602
-5.168338;336.5625;7531;17125;0.9513953;-0.03263092;-0.25288964;878860522
-5.137380;336.5625;7531;17131;0.9544544;-0.029571772;-0.23453474;878891480
-5.107339;336.625;7531;17131;0.9534347;-0.0387492184;-0.24677134;878921521
-5.084471;336.625;7531;17131;0.952415;-0.0438478;-0.25288964;878944389
-5.058154;336.625;7531;17131;0.9513953;-0.039768936;-0.25594878;878970706
-5.006959;336.625;7531;17125;0.95649384;-0.029571772;-0.22841644;879021901
-4.985163;336.625;7531;17125;0.9534347;-0.031611204;-0.24575162;879043697
-4.958118;336.625;7531;17131;0.950375536;-0.036709784;-0.25288964;879070742
-4.926948;336.625;7531;17125;0.9513953;-0.042828084;-0.26104736;879101912
-4.900394;336.625;7531;17125;0.9544544;-0.036709784;-0.22739672;879128466
-4.876178;336.625;7531;17125;0.9544544;-0.034670352;-0.22739672;879152682
-4.854188;336.625;7531;17125;0.9513953;-0.031611204;-0.24575162;879174672
-4.826039;336.625;7531;17125;0.9483361;-0.04078865;-0.2692051;879202821
-4.800638;336.625;7531;17125;0.94935584;-0.04078865;-0.25900792;879228222
-4.766322;336.625;7531;17125;0.9534347;-0.042828084;-0.23453474;879262538
-4.733321;336.625;7531;17125;0.952415;-0.036709784;-0.23453474;879295539
-4.685305;336.5625;7525;17125;0.9462967;-0.036709784;-0.2641065;879343555
-4.661793;336.5625;7525;17125;0.950375536;-0.034670352;-0.25492908;879367067
-4.633285;336.5625;7531;17125;0.9534347;-0.0387492184;-0.232495316;879395575
-4.605194;336.5625;7531;17125;0.9544544;-0.0377295;-0.23351502;879423666
-4.582726;336.5625;7531;17125;0.950375536;-0.03263092;-0.2508502;879446134
-4.559722;336.5625;7531;17125;0.94935584;-0.03263092;-0.2579882;879469138
-4.525967;336.5625;7531;17125;0.950375536;-0.030591488;-0.26614594;879502893
-4.500266;336.625;7531;17125;0.95547416;-0.030591488;-0.23351502;879528594
-4.474860;336.625;7537;;-143;0;3945;879554000
-4.451023;336.625;7537;17118;0.952415;-0.04078865;-0.232495316;879577837
-4.421331;336.625;7531;17112;0.94935584;-0.04078865;-0.26002764;879607529
-4.397946;336.625;7531;17112;0.94935584;-0.03569007;-0.25594878;879630914
-4.373898;336.625;7531;17118;0.950375536;-0.039768936;-0.2508502;879654962
-4.350764;336.6875;7531;17118;0.9544544;-0.036709784;-0.226377008;879678096
-4.321733;336.6875;7531;17112;0.9513953;-0.04588723;-0.24167276;879707127
-4.299423;336.625;7531;17112;0.950375536;-0.04588723;-0.25492908;879729437
-4.273950;336.625;7531;17112;0.9473164;-0.044867516;-0.25900792;879754910
-4.251512;336.625;7531;17112;0.9513953;-0.04078865;-0.2579882;879777348
-4.203115;336.625;7531;17112;0.9513953;-0.041808368;-0.23657418;879825745
-4.180569;336.625;7531;17112;0.950375536;-0.036709784;-0.24677134;879848291
-4.159259;336.5625;7531;17112;0.9483361;-0.03569007;-0.2569685;879869601
-4.132783;336.5625;7531;17112;0.950375536;-0.034670352;-0.2692051;879896077
-4.081090;336.625;7531;17112;0.952415;-0.031611204;-0.23453474;879947770
-4.053040;336.625;7531;17112;0.95547416;-0.031611204;-0.22943616;879975820
-4.020475;336.625;7531;17112;0.9473164;-0.03569007;-0.26002764;880008385
-3.996967;336.625;7531;17112;0.950375536;-0.0377295;-0.26104736;880031893
-3.945786;336.6875;7531;17112;0.95547416;-0.031611204;-0.23045588;880083074
-3.920736;336.6875;7531;17106;0.9534347;-0.041808368;-0.23555446;880108124
-3.897169;336.6875;7531;17100;0.952415;-0.041808368;-0.24065304;880131691
-3.871837;336.6875;7531;17100;0.94935584;-0.04588723;-0.25390936;880157023
-3.839569;336.6875;7531;171191039;-380;0;3947;880189291
-3.817910;336.6875;7531;17100;0.950375536;-0.039768936;-0.24371218;880210950
-3.791362;336.6875;7531;17100;0.95547416;-0.039768936;-0.22841644;880237498
-3.769076;336.6875;7531;17100;0.9483361;-0.041808368;-0.2447319;880259784
-3.727416;336.625;7531;17100;0.9483361;-0.044867516;-0.26206708;880301444
-3.698994;336.625;7531;17106;0.9534347;-0.036709784;-0.24677134;880329866
-3.671836;336.625;7531;17106;0.9544544;-0.034670352;-0.23555446;880357024
-3.648569;336.625;7531;17106;0.9534347;-0.0377295;-0.23555446;880380291
-3.620115;336.625;7525;17106;0.94935584;-0.03569007;-0.2702248;880408745
-3.597163;336.5625;7525;17112;0.94935584;-0.026512622;-0.26818538;880431697
-3.570497;336.625;7531;;-240;0;3945;880458363
-3.517659;336.6875;7531;17100;0.952415;-0.03569007;-0.23555446;880511201
-3.496276;336.6875;7531;17093;0.9513953;-0.04894638;-0.24983048;880532584
-3.470264;336.6875;7531;17093;0.9473164;-0.0438478;-0.26104736;880558596
-3.448130;336.6875;7531;17093;0.9534347;-0.036709784;-0.25594878;880580730
-3.419741;336.6875;7537;17093;0.9534347;-0.03263092;-0.24575162;880609119
-3.395987;336.6875;7537;17087;0.95649384;-0.029571772;-0.22943616;880632873
-3.369734;336.75;7531;;-195;0;3945;880659126
-3.347399;336.75;7531;17081;0.94935584;-0.053025244;-0.26104736;880681461
-3.326283;336.75;7531;17081;0.9483361;-0.050985812;-0.26614594;880702577
-3.293273;336.6875;7531;17081;0.952415;-0.041808368;-0.2447319;880735587
-3.269443;336.6875;7531;17087;0.9544544;-0.03263092;-0.23453474;880759417
-3.239136;336.6875;7531;;-253;0;3947;880789724
-3.197643;336.6875;7531;17093;0.9513953;-0.041808368;-0.26002764;880831217
-3.168581;336.6875;7525;17093;0.9473164;-0.042828084;-0.26002764;880860279
-3.138786;336.6875;7531;;-180;0;3945;880890074
-3.084945;336.6875;7531;17112;0.9513953;-0.02447319;-0.24983048;880943915
-3.058616;336.6875;7531;17112;0.94935584;-0.031611204;-0.2630868;880970244
-3.037283;336.6875;7531;;-247;0;3947;880991577
-2.985159;336.75;7531;17100;0.9544544;-0.036709784;-0.23045588;881043701
-2.958207;336.75;7531;17100;0.95547416;-0.033650636;-0.23453474;881070653
-2.927961;336.75;7531;17087;0.950375536;-0.039768936;-0.25288964;881100899
-2.897741;336.75;7531;17081;0.9473164;-0.041808368;-0.26716566;881131119
-2.874522;336.75;7531;17075;0.950375536;-0.04078865;-0.24371218;881154338
-2.841803;336.8125;7531;17075;0.9513953;-0.046906948;-0.22433758;881187057
-2.817315;336.8125;7531;17075;0.9544544;-0.042828084;-0.23453474;881211545
-2.790775;336.75;7531;17075;0.950375536;-0.042828084;-0.25900792;881238085
-2.758048;336.75;7531;17075;0.9473164;-0.039768936;-0.2641065;881270812
-2.726981;336.75;7531;17081;0.9544544;-0.036709784;-0.24065304;881301879
-2.675854;336.75;7531;17075;0.9544544;-0.034670352;-0.23351502;881353006
-2.647004;336.6875;7531;17075;0.9513953;-0.0387492184;-0.2579882;881381856
-2.624720;336.6875;7531;17087;0.9473164;-0.028552056;-0.2630868;881404140
-2.596301;336.6875;7531;17087;0.95547416;-0.02447319;-0.25492908;881432559
-2.575101;336.6875;7531;17093;0.95649384;-0.025492906;-0.23045588;881453759
-2.546269;336.6875;7531;17093;0.95649384;-0.033650636;-0.23351502;881482591
-2.515950;336.6875;7531;17081;0.952415;-0.036709784;-0.2569685;881512910
-2.493188;336.75;7531;17081;0.94935584;-0.03569007;-0.26818538;881535672
-2.465952;336.75;7525;17081;0.952415;-0.033650636;-0.25594878;881562908
-2.444230;336.75;7531;17075;0.952415;-0.033650636;-0.23045588;881584630
-2.420819;336.8125;7531;17068;0.9534347;-0.039768936;-0.2314756;881608041
-2.395428;336.8125;7531;17056;0.9513953;-0.04588723;-0.24575162;881633432
-2.363909;336.8125;7531;17056;0.950375536;-0.04588723;-0.26206708;881664951
-2.340663;336.8125;7531;17056;0.950375536;-0.039768936;-0.25390936;881688197
-2.310382;336.875;7531;17062;0.95547416;-0.0377295;-0.23453474;881718478
-2.287381;336.875;7531;17062;0.95649384;-0.0377295;-0.2314756;881741479
-2.260120;336.875;7531;17062;0.9513953;-0.042828084;-0.24575162;881768740
-2.235091;336.875;7531;;-377;0;3947;881793769
-2.194189;336.875;7537;17068;0.9544544;-0.036709784;-0.24371218;881834671
-2.164613;336.875;7537;17075;0.95547416;-0.031611204;-0.23555446;881864247
-2.140177;336.875;7531;17081;0.9534347;-0.028552056;-0.22943616;881888683
-2.104604;336.75;7531;17081;0.950375536;-0.034670352;-0.2579882;881924256
-2.082045;336.75;7531;17081;0.9483361;-0.03569007;-0.26614594;881946815
-2.055285;336.75;7531;17081;0.9513953;-0.03569007;-0.25390936;881973575
-2.022712;336.75;7531;17075;0.9534347;-0.030591488;-0.23555446;882006148
-2.001389;336.75;7525;17081;0.950375536;-0.03569007;-0.25186992;882027471
-1.974048;336.6875;7525;17075;0.94935584;-0.033650636;-0.25900792;882054812
-1.950755;336.75;7525;17075;0.9483361;-0.034670352;-0.27124452;882078105
-1.926184;336.75;7525;17068;0.9534347;-0.034670352;-0.24575162;882102676
-1.900616;336.8125;7531;17062;0.95547416;-0.04078865;-0.2314756;882128244
-1.879200;336.8125;7531;17056;0.95547416;-0.041808368;-0.2253573;882149660
-1.852169;336.8125;7531;17056;0.9473164;-0.046906948;-0.26206708;882176691
-1.830168;336.8125;7531;17056;0.9473164;-0.047926664;-0.27226424;882198692
-1.798731;336.875;7531;17056;0.952415;-0.0387492184;-0.24371218;882230129
-1.772840;336.875;7531;17056;0.95547416;-0.034670352;-0.2314756;882256020
-1.719228;336.875;7531;17056;0.9513953;-0.04588723;-0.25186992;882309632
-1.684130;336.875;7531;17056;0.9513953;-0.041808368;-0.25900792;882344730
-1.659860;336.875;7531;17062;0.9544544;-0.033650636;-0.2447319;882369000
-1.636864;336.8125;7531;;-355;0;3944;882391996
-1.612079;336.8125;7531;17075;0.952415;-0.026512622;-0.232495316;882416781
-1.588719;336.8125;7531;17075;0.9513953;-0.036709784;-0.248810768;882440141
-1.561596;336.8125;7525;17075;0.9483361;-0.036709784;-0.26614594;882467264
-1.539055;336.8125;7525;17075;0.94935584;-0.041808368;-0.25594878;882489805
-1.509070;336.8125;7525;17075;0.9544544;-0.029571772;-0.24371218;882519790
-1.487165;336.8125;7525;17075;0.9544544;-0.030591488;-0.2386136;882541695
-1.460680;336.875;7525;17081;0.9534347;-0.034670352;-0.24983048;882568180
-1.409043;336.875;7525;17075;0.9483361;-0.049966096;-0.2569685;882619817
-1.385115;336.875;7525;17068;0.9513953;-0.044867516;-0.25390936;882643745
-1.350701;336.9375;7531;17068;0.9513953;-0.041808368;-0.24167276;882678159
-1.329334;336.9375;7531;17068;0.95547416;-0.030591488;-0.23351502;882699526
-1.307050;336.9375;7531;17075;0.952415;-0.02753234;-0.247791052;882721810
-1.284979;336.9375;7531;17068;0.9483361;-0.0438478;-0.25390936;882743881
-1.260547;337.0;7531;17068;0.950375536;-0.04894638;-0.26002764;882768313
-1.229975;336.9375;7531;17068;0.9544544;-0.046906948;-0.2386136;882798885
-1.206846;336.9375;7531;17068;0.95649384;-0.04078865;-0.23045588;882822014
-1.159707;336.875;7531;17075;0.95547416;-0.02447319;-0.24677134;882869153
-1.133151;336.875;7531;17081;0.950375536;-0.03263092;-0.26206708;882895709
-1.108483;336.875;7525;17081;0.950375536;-0.04894638;-0.2508502;882920377
-1.086633;336.875;7525;17081;0.94935584;-0.044867516;-0.24167276;882942227
-1.059853;336.875;7531;17081;0.950375536;-0.041808368;-0.23453474;882969007
-1.038046;336.8125;7525;17081;0.94935584;-0.034670352;-0.2508502;882990814
-1.016218;336.8125;7525;17087;0.9483361;-0.02753234;-0.26512624;883012642
-0.989136;336.8125;7525;17093;0.9473164;-0.028552056;-0.26512624;883039724
-0.958988;336.875;7525;17093;0.9513953;-0.03569007;-0.247791052;883069872
-0.928235;336.9375;7525;17087;0.9544544;-0.0438478;-0.232495316;883100625
-0.906199;336.9375;7525;17087;0.9513953;-0.042828084;-0.247791052;883122661
-0.884367;336.9375;7525;17087;0.950375536;-0.0387492184;-0.26104736;883144493
-0.858924;337.0;7525;17087;0.9483361;-0.0377295;-0.2630868;883169936
-0.828509;337.0;7531;17087;0.95649384;-0.030591488;-0.232495316;883200351
-0.798107;337.0625;7531;17081;0.95649384;-0.03569007;-0.22739672;883230753
-0.775982;337.0625;7531;17081;0.9513953;-0.042828084;-0.23963332;883252878
-0.748218;337.0625;7531;17081;0.952415;-0.04894638;-0.25594878;883280642
-0.718158;337.0625;7531;17075;0.9513953;-0.046906948;-0.25288964;883310702
-0.695236;337.0;7531;17075;0.9513953;-0.03263092;-0.23453474;883333624
-0.637473;337.0;7531;17075;0.952415;-0.034670352;-0.242692468;883391387
-0.614377;337.0;7525;17075;0.94935584;-0.04588723;-0.26002764;883414483
-0.588783;336.9375;7525;17075;0.9473164;-0.04588723;-0.26002764;883440077
-0.566298;336.9375;7525;17081;0.9534347;-0.03569007;-0.24371218;883462562
-0.537129;336.9375;7525;17093;0.9534347;-0.029571772;-0.237593884;883491731
-0.513106;336.875;7525;17093;0.952415;-0.028552056;-0.2508502;883515754
-0.481413;336.9375;7525;17093;0.94935584;-0.039768936;-0.2702248;883547447
-0.447293;336.9375;7525;17100;0.950375536;-0.036709784;-0.26512624;883581567
-0.425073;337.0;7531;17100;0.952415;-0.0387492184;-0.232495316;883603787
-0.396236;337.0;7531;17100;0.9534347;-0.026512622;-0.23045588;883632624
-0.346586;337.0625;7531;17100;0.950375536;-0.0387492184;-0.26104736;883682274
-0.319169;337.0625;7531;17093;0.94935584;-0.04078865;-0.26206708;883709691
-0.295481;337.125;7531;17087;0.950375536;-0.04588723;-0.23963332;883733379
-0.267171;337.125;7537;17087;0.952415;-0.034670352;-0.22025872;883761689
-0.243928;337.125;7537;17087;0.95649384;-0.03569007;-0.2314756;883784932
-0.216131;337.125;7531;17087;0.950375536;-0.0387492184;-0.24677134;883812729
-0.165415;337.125;7531;17087;0.959553;-0.0377295;-0.248810768;883863445
-0.084089;337.0625;7531;17093;0.96261216;-0.025492906;-0.23045588;883944771
-0.055426;337.0;7531;17100;0.9422178;-0.015295744;-0.24677134;883973434
0.019394;336.5625;7531;17093;1.1757328;-0.088715316;-0.32936836;884048254
0.045292;336.0;7531;17087;1.4796083;-0.10095191;-0.39666964;884074152
0.070219;335.5625;7537;17087;2.267849;-0.14683914;-0.6281452;884099079
0.117926;334.0625;7537;17150;3.769891;-0.221278432;-1.056426;884146786
0.155485;333.8125;7537;17193;4.017682;-0.242692468;-1.225699;884184345
0.176761;333.125;7537;17187;4.017682;-0.17845034;-1.2940199;884205621
0.205957;331.5625;7518;17168;4.017682;-0.27736282;-1.4796083;884234817
0.249269;330.25;7506;17100;4.017682;-0.42930056;-1.9966044;884278129
0.274521;330.4375;7506;17112;4.017682;-0.49150324;-2.0027228;884303381
0.307131;331.25;7518;17068;4.017682;-0.30387544;-2.1770942;884335991
0.356277;333.8125;7618;16900;4.017682;-0.1815095;-2.0832804;884385137
0.378861;336.75;7731;16593;4.017682;-0.013256311;-2.0006832;884407721
0.408796;340.9375;7875;15925;4.017682;0.0387492184;-1.81815408;884437656
0.438021;346.3125;7981;14650;4.017682;0.088715316;-1.69884732;884466881
0.467764;352.875;7956;12881;4.017682;0.25186992;-1.7365768;884496624
0.503503;0.4375;7718;11331;4.017682;0.377295016;-1.6080926;884532363
0.526284;6.25;7443;10793;4.017682;0.45581316;-1.5326336;884555144
0.550666;16.625;6893;10731;4.017682;0.6067312;-1.1981666;884579526
0.577951;30.5;6243;11393;4.017682;0.66077616;-0.9014292;884606811
0.610320;52.375;5562;12762;4.017682;0.5832777;-0.088715316;884639180
0.639458;91.375;4987;14862;4.017682;-0.07138014;0.50475956;884668318
0.661363;132.0;4781;16550;4.017682;-0.87593624;0.72399852;884690223
0.691757;194.5;4681;-17157;4.017682;-1.6284869;0.9422178;884720617
0.718179;217.625;4587;-16294;4.017682;-1.7100642;1.0197163;884747039
0.747961;185.5625;4218;-16294;4.017682;-1.5907574;1.6070728;884776821
0.770650;175.6875;3612;-17732;4.017682;-0.4894638;2.0516692;884799510
0.801052;164.5;3043;16300;4.017682;0.8096547;2.1964688;884829912
0.828503;162.0;2725;15681;4.017682;1.1165893;2.6502426;884857363
0.850784;167.9375;2268;16556;4.017682;0.10605049;3.0489516;884879644
0.873089;175.125;2043;17981;4.017682;-0.7158408;3.3722016;884901949
0.909107;183.0;1562;-16307;4.017682;-1.77430632;4.030938;884937967
0.939634;180.5625;856;-17569;4.017682;0.017335176;4.007485;884968494
0.983242;180.875;-19;17287;4.017682;0.46193148;4.030938;885012102
1.010121;186.0;-463;-17032;4.017682;-1.1380034;4.030938;885038981
1.039115;188.75;-700;-15832;4.017682;-1.4867463;4.030938;885067975
1.060865;190.875;-1325;-15744;4.017682;-0.5659425;4.030938;885089725
1.091237;193.75;-2119;-16788;4.017682;0.07953787;4.030938;885120097
1.120583;196.9375;-2757;-16038;4.017682;-0.387492184;4.030938;885149443
1.150322;121.125;-3369;-14757;4.017682;-1.2838228;4.030938;885179182
1.171875;132.9375;-3919;-14644;4.017682;-0.398709068;4.030938;885200735
1.200118;146.0;-4500;-14588;4.017682;-0.58633684;4.030938;885228978
1.231073;154.1875;-5569;-13132;4.017682;-1.1532991;4.030938;885259933
1.260752;169.5;-6488;-11857;4.017682;-0.50577924;4.030938;885289612
1.282933;178.6875;-6938;-10125;4.0095244;0.2070024;4.030938;885311793
1.310970;177.25;-6707;-5769;4.017682;-0.12236595;4.030938;885339830
